Step,AccX,AccY,AccZ,GyrX,GyrY,GyrZ
0,5.53,-5.85,-3.94, -0.11,0.17,-0.10
1,4.24,-7.15,-4.80, 0.02,-0.08,-0.46
2,5.06,-6.52,-4.46, -0.18,-0.06,0.40
3,5.06,-6.52,-4.58, -0.11,0.08,-0.51
4,4.87,-6.83,-4.69, -0.14,0.08,0.18
5,5.39,-6.48,-4.41, -0.13,0.08,0.10
6,4.78,-6.60,-4.47, -0.14,0.13,-0.29
7,4.43,-6.87,-4.65, -0.06,-0.13,0.19
8,5.39,-6.43,-4.76, -0.09,0.08,0.22
9,5.35,-6.54,-5.04, -0.06,0.21,-0.28
10,5.06,-6.90,-4.49, 0.07,-0.05,0.08
11,5.16,-6.77,-4.39, 0.02,0.15,0.32
12,4.77,-6.52,-4.32, -0.12,0.20,-0.04
13,4.70,-6.66,-4.43, -0.06,-0.21,-0.28
14,4.90,-6.89,-4.87, -0.00,-0.09,0.39
15,5.32,-5.91,-4.34, -0.14,0.16,0.04
16,4.88,-6.57,-4.82, -0.11,0.05,-0.58
17,4.98,-7.11,-4.97, 0.04,-0.07,0.03
18,5.01,-6.50,-4.06, 0.09,-0.18,0.46
19,4.82,-6.14,-3.60, -0.12,-0.23,0.24
20,6.71,-9.41,-5.40, 0.10,0.06,0.60
21,5.95,-7.35,-5.60, -0.04,0.34,0.56
22,3.80,-6.23,-3.45, 0.21,-0.51,-0.26
23,3.95,-7.05,-5.64, 0.15,-0.02,0.35
24,4.85,-7.12,-3.63, 0.11,0.50,0.55
25,5.97,-7.33,-3.17, 0.06,-0.44,0.65
26,7.56,-6.11,-0.68, -0.33,-0.53,0.83
27,5.81,-3.19,0.65, -0.73,0.50,-0.30
28,6.69,-9.83,-7.51, -0.93,3.18,-2.52
29,1.07,-9.29,-10.33, -0.49,1.02,2.91
30,2.84,-2.94,-2.28, 0.83,-2.83,1.12
31,2.11,-7.72,-3.34, -0.05,0.82,-2.94
32,1.41,-7.96,-9.24, -0.96,2.68,0.64
33,6.69,-7.13,-5.57, 0.32,-1.63,0.20
34,4.02,-7.82,-3.40, 0.00,-0.62,-1.71
35,5.83,-4.69,-0.33, -0.25,0.22,1.22
36,8.54,-6.00,-5.42, -0.71,1.13,-0.86
37,4.83,-7.54,-6.17, -0.40,-0.06,0.26
38,4.21,-5.35,-3.11, -0.21,-0.53,0.23
39,5.60,-7.54,-4.16, -0.35,0.69,0.13
40,5.52,-7.26,-4.64, -0.37,0.74,0.33
41,4.75,-7.39,-3.84, -0.04,-0.07,0.43
42,5.25,-6.44,-4.80, -0.39,0.71,0.32
43,4.28,-5.89,-6.90, -0.19,0.55,-0.06
44,3.58,-6.00,-4.32, -0.18,-0.32,-0.20
45,5.88,-6.12,-4.21, -0.20,-0.22,0.26
46,5.78,-6.45,-4.47, 0.07,0.13,0.59
47,6.41,-6.45,-5.15, -0.30,0.39,0.64
48,4.96,-7.07,-5.02, 0.09,-0.15,-0.81
49,4.27,-7.68,-7.87, 0.37,-0.21,1.33
50,4.81,-2.97,-1.73, 0.10,-0.28,0.65
51,5.97,-7.42,-4.65, 0.36,0.55,-2.25
52,3.34,-10.24,-3.68, 0.37,0.57,1.06
53,7.05,-5.57,-3.49, 0.20,-0.22,1.70
54,4.14,-7.48,-4.95, -0.24,0.37,-1.40
55,4.33,-7.19,-4.24, -0.23,-0.33,1.01
56,6.99,-6.51,-2.63, -0.24,0.77,0.94
57,5.43,-7.83,-3.55, -0.65,1.49,-1.02
58,4.49,-6.61,-7.34, -0.59,0.79,-0.19
59,5.07,-7.81,-4.65, -0.22,0.31,-0.31
60,2.82,-7.79,-6.32, -0.30,0.57,-0.75
61,3.04,-6.59,-4.99, 0.41,-0.82,-0.17
62,8.26,-2.80,-3.34, -0.60,-0.91,1.81
63,6.72,-4.37,-3.73, 0.04,-0.60,-2.01
64,2.81,-9.98,-5.69, 0.17,0.29,-1.88
65,2.34,-7.55,-3.72, 0.30,-1.03,2.81
66,8.47,-5.45,-4.04, 0.35,-0.76,-0.60
67,5.36,-6.94,-4.75, -0.48,0.80,-0.46
68,5.54,-6.20,-4.13, -0.32,0.08,0.02
69,6.42,-6.54,-4.10, -0.52,0.57,0.62
70,6.82,-5.40,-1.70, -0.99,0.97,0.77
71,6.67,-7.77,-5.72, -0.72,0.89,0.19
72,1.52,-7.80,-7.60, -0.08,0.26,0.68
73,3.94,-5.25,-2.71, 0.04,-0.13,0.76
74,4.34,-6.84,-3.34, -0.32,0.57,-0.18
75,1.61,-6.70,-4.07, -0.42,-0.36,0.85
76,6.12,-7.40,-10.26, 0.24,-0.23,0.55
77,2.94,-6.52,-5.02, 0.59,-0.05,0.77
78,3.64,-6.64,-3.61, 0.37,-0.80,0.73
79,4.41,-7.15,-4.64, -0.27,0.65,-1.17
80,3.83,-7.64,-4.38, 0.05,0.23,-0.66
81,3.80,-7.23,-4.78, 0.36,-0.59,0.34
82,4.88,-7.48,-4.06, 0.54,-0.86,0.68
83,5.41,-6.41,-4.49, 0.14,-0.09,0.86
84,4.87,-6.28,-4.29, 0.48,-0.06,-0.41
85,4.24,-7.62,-4.01, 0.03,0.13,-0.37
86,3.52,-7.42,-3.77, 0.59,-0.55,-0.54
87,4.87,-7.68,-4.41, 0.09,-0.74,0.29
88,5.84,-5.91,-4.19, -0.13,0.18,-1.37
89,2.76,-8.23,-4.64, 0.43,-0.37,-1.15
90,5.11,-6.99,-4.31, 0.31,-0.64,0.77
91,-3.64,-6.65,2.19, 0.39,-1.64,-1.80
92,-6.07,-4.37,3.45, -1.14,-4.19,-2.56
93,-1.26,0.28,-9.86, -2.35,-4.66,-1.80
94,-25.74,-9.18,13.92, -8.73,-3.80,1.46
95,62.61,61.20,-18.87, -4.70,2.02,-0.67
96,2.46,-10.35,-0.53, 1.76,0.77,-6.52
97,4.10,-12.09,-4.05, 0.93,0.39,0.25
98,0.48,-5.58,-1.43, -0.11,-0.48,0.91
99,2.29,-4.67,-5.62, -0.13,-0.22,-0.05
100,1.92,-4.27,-4.15, -0.17,0.26,-0.50
101,2.83,-7.42,-8.40, 1.03,0.58,-1.01
102,4.30,-3.08,-5.68, 0.17,0.03,-0.33
103,4.70,-6.67,-5.40, -0.30,0.51,0.33
104,6.20,-2.98,-9.10, -0.47,0.65,0.30
105,4.37,-3.22,-8.23, -0.51,0.86,0.71
106,3.27,-4.66,-5.34, -0.54,0.20,0.46
107,2.34,-5.37,-6.98, -0.22,0.08,0.31
108,4.13,-6.03,-8.80, -0.02,0.40,0.14
109,4.57,-5.50,-7.24, 0.15,0.39,0.12
110,3.04,-2.29,-5.54, -0.09,0.39,0.05
111,5.86,-5.80,-6.80, -0.30,0.17,0.24
112,3.75,-5.89,-7.10, -0.14,0.22,0.34
113,1.48,-9.32,-1.91, -0.01,-0.12,0.94
114,7.54,-13.82,-9.90, 0.47,-1.70,2.05
115,-3.30,0.57,-1.65, -0.49,-1.24,-2.38
116,7.02,-1.95,-8.30, -0.49,-0.63,0.62
117,0.80,-5.17,-3.05, -0.18,-2.30,2.57
118,2.94,-8.34,-8.56, 0.67,1.40,1.36
119,2.73,-8.07,-8.73, 1.12,4.37,-3.27
120,-0.64,-7.02,-3.83, -3.61,-0.04,-5.02
121,5.45,-3.39,-5.75, 2.03,-1.90,7.77
122,3.44,-7.29,-7.54, 0.17,1.10,-2.10
123,2.60,-6.84,-6.06, 0.38,0.83,-2.66
124,4.42,-5.32,-6.43, 0.24,-0.82,0.60
125,2.60,-6.69,-7.41, -0.12,-0.15,-0.16
126,4.43,-4.52,-6.49, 0.05,-0.22,-0.21
127,5.09,-5.31,-7.06, 0.13,-0.37,-0.22
128,4.83,-4.98,-6.34, -0.07,0.16,0.03
129,4.55,-4.92,-6.74, -0.13,-0.01,0.09
130,4.36,-4.89,-6.39, -0.16,0.28,0.21
131,3.92,-5.02,-6.42, -0.23,0.03,0.24
132,4.20,-4.97,-5.97, -0.26,0.10,0.26
133,4.22,-5.39,-7.05, -0.24,-0.04,0.29
134,3.92,-5.00,-6.59, -0.26,0.15,0.25
135,4.01,-5.08,-6.87, -0.21,0.03,0.25
136,3.28,-4.80,-6.17, -0.11,0.04,0.19
137,3.74,-5.19,-7.25, -0.14,-0.06,0.08
138,3.34,-4.77,-6.65, -0.02,-0.00,0.01
139,3.97,-4.97,-6.69, -0.08,-0.01,-0.02
140,3.94,-5.01,-6.58, -0.07,-0.10,0.01
141,3.92,-5.03,-6.75, -0.07,0.02,0.00
142,4.48,-5.32,-7.04, -0.05,0.07,-0.02
143,4.35,-5.77,-7.26, -0.10,-0.01,0.01
144,3.99,-5.30,-7.13, -0.11,-0.08,0.06
145,4.04,-5.17,-6.86, -0.12,-0.14,0.00
146,4.13,-5.20,-6.68, -0.04,0.08,-0.02
147,5.12,-5.24,-5.70, -0.22,-0.08,0.28
148,3.70,-4.59,-6.20, -0.19,0.21,0.40
149,3.31,-4.41,-6.74, -0.23,0.36,0.31
150,3.66,-5.00,-6.86, -0.23,0.06,0.32
151,3.48,-4.94,-7.07, -0.20,0.16,0.22
152,3.64,-4.99,-6.92, -0.14,0.12,0.16
153,3.59,-5.05,-6.94, -0.12,0.06,0.09
154,3.61,-5.11,-6.96, -0.08,0.01,0.04
155,3.96,-5.04,-6.69, -0.07,-0.00,0.01
156,4.02,-5.14,-6.69, -0.07,-0.01,0.00
157,4.01,-5.09,-6.71, -0.07,-0.02,0.00
158,3.98,-5.10,-6.79, -0.07,-0.01,0.00
159,3.98,-5.09,-6.77, -0.07,-0.01,0.00
160,3.95,-5.12,-6.82, -0.07,-0.01,0.00
161,3.94,-5.08,-6.77, -0.07,-0.02,0.00
162,3.97,-5.08,-6.79, -0.07,-0.01,0.00
163,4.01,-5.10,-6.76, -0.07,-0.02,0.00
164,3.99,-5.07,-6.77, -0.07,-0.01,0.01
165,3.97,-5.09,-6.79, -0.07,-0.01,0.00
166,4.03,-5.08,-6.81, -0.07,-0.01,0.00
167,3.90,-5.07,-6.79, -0.06,-0.01,0.00
168,3.94,-5.06,-6.75, -0.06,-0.01,0.00
169,4.03,-5.06,-6.76, -0.07,-0.01,0.00
170,3.96,-5.02,-6.70, -0.07,-0.01,0.00
171,4.01,-5.08,-6.76, -0.07,-0.01,0.00
172,3.96,-5.07,-6.74, -0.07,-0.01,0.00
173,3.91,-5.04,-6.74, -0.07,-0.01,0.00
174,4.06,-5.06,-6.74, -0.07,-0.01,0.00
175,3.96,-5.09,-6.75, -0.07,-0.01,0.00
176,3.98,-5.06,-6.77, -0.07,-0.01,0.01
177,3.92,-5.03,-6.77, -0.07,-0.01,0.00
178,3.95,-5.10,-6.84, -0.07,-0.02,0.00
179,4.02,-5.08,-6.66, -0.07,-0.01,0.00
180,3.97,-4.99,-6.78, -0.06,-0.01,0.00
181,3.96,-5.05,-6.81, -0.07,-0.01,0.00
182,3.94,-5.08,-6.76, -0.07,-0.01,0.00
183,3.97,-5.04,-6.82, -0.07,-0.01,0.01
184,3.91,-5.08,-6.73, -0.07,-0.01,0.00
185,3.97,-5.04,-6.70, -0.06,-0.01,0.00
186,4.02,-5.02,-6.74, -0.07,-0.01,0.00
187,3.95,-5.04,-6.76, -0.07,-0.01,0.00
188,4.01,-5.09,-6.82, -0.06,-0.00,0.01
189,3.94,-5.17,-6.79, -0.06,-0.02,0.00
190,3.91,-5.17,-6.77, -0.07,-0.02,0.00
191,3.92,-5.03,-6.71, -0.07,-0.01,0.00
192,3.96,-4.94,-6.80, -0.07,-0.01,0.00
193,4.03,-5.00,-6.84, -0.06,-0.01,0.01
194,4.00,-5.09,-6.79, -0.07,-0.01,0.01
195,3.91,-5.15,-6.65, -0.07,-0.01,0.00
196,3.88,-5.15,-6.68, -0.07,-0.01,0.00
197,4.00,-5.10,-6.75, -0.07,-0.01,0.00
198,4.06,-4.99,-6.90, -0.07,-0.01,0.00
199,4.00,-5.01,-6.80, -0.07,-0.01,0.01
200,3.98,-5.16,-6.76, -0.06,-0.01,0.00
201,3.87,-5.15,-6.73, -0.06,-0.01,0.00
202,3.90,-5.14,-6.86, -0.07,-0.01,0.00
203,3.97,-5.03,-6.73, -0.07,-0.01,0.00
204,3.95,-4.95,-6.73, -0.07,-0.01,0.00
205,3.99,-4.97,-6.81, -0.07,-0.01,0.00
206,3.89,-5.14,-6.75, -0.07,-0.02,0.00
207,3.92,-5.21,-6.65, -0.07,-0.01,0.01
208,3.94,-5.17,-6.66, -0.07,-0.00,0.00
209,3.95,-4.96,-6.82, -0.07,-0.01,0.00
210,3.98,-4.94,-6.81, -0.07,-0.01,0.00
211,3.99,-5.03,-6.82, -0.06,-0.01,0.00
212,3.90,-5.09,-6.72, -0.06,-0.01,0.00
213,3.90,-5.14,-6.66, -0.07,-0.01,0.00
214,3.97,-5.11,-6.74, -0.06,0.00,0.00
215,4.01,-5.00,-6.84, -0.06,-0.01,0.00
216,3.93,-4.96,-6.90, -0.06,-0.01,0.01
217,3.93,-5.02,-6.91, -0.06,0.01,0.00
218,4.00,-5.04,-6.69, -0.06,0.01,0.00
219,4.05,-5.24,-6.71, -0.06,-0.01,0.00
220,3.91,-5.21,-6.66, -0.07,-0.02,0.01
221,3.96,-4.97,-6.86, -0.08,-0.00,0.01
222,3.91,-4.82,-6.96, -0.06,-0.02,0.00
223,3.95,-5.05,-6.76, -0.06,-0.02,0.00
224,3.95,-5.19,-6.62, -0.07,-0.00,0.01
225,4.02,-5.13,-6.73, -0.07,0.00,0.00
226,4.00,-5.08,-6.79, -0.07,-0.02,0.01
227,3.98,-5.00,-6.92, -0.07,-0.01,0.00
228,3.98,-4.98,-6.87, -0.07,-0.00,0.00
229,3.97,-5.08,-6.81, -0.06,-0.01,0.01
230,4.01,-5.19,-6.78, -0.06,-0.00,0.00
231,3.92,-5.20,-6.73, -0.07,-0.01,0.00
232,4.00,-5.15,-6.71, -0.07,-0.01,0.00
233,3.94,-5.00,-6.76, -0.07,-0.00,0.00
234,4.05,-4.92,-6.87, -0.06,-0.00,0.00
235,4.02,-4.94,-6.86, -0.06,-0.01,0.00
236,3.97,-5.17,-6.81, -0.06,-0.01,0.00
237,3.90,-5.29,-6.73, -0.07,-0.01,0.00
238,3.89,-5.10,-6.71, -0.07,-0.01,0.00
239,3.98,-5.00,-6.87, -0.07,-0.01,0.00
240,4.04,-5.02,-6.82, -0.06,-0.01,0.00
241,3.94,-5.08,-6.76, -0.07,-0.01,0.00
242,3.97,-5.07,-6.77, -0.07,-0.01,0.00
243,3.91,-5.20,-6.77, -0.07,-0.02,0.00
244,3.87,-5.19,-6.76, -0.07,-0.01,0.00
245,3.98,-5.05,-6.78, -0.07,-0.01,0.00
246,4.01,-4.95,-6.87, -0.07,-0.01,0.00
247,3.88,-4.87,-6.44, -0.03,-0.04,0.03
248,3.53,-10.14,-7.95, 0.09,0.40,1.28
249,4.86,-7.55,-7.34, -0.69,0.32,-0.31
250,0.85,-7.71,-1.46, -1.31,0.23,0.87
251,0.74,-4.54,-6.20, -0.41,0.04,2.94
252,2.50,-3.70,-4.15, -0.92,3.05,0.92
253,4.48,-5.60,-11.77, 0.04,0.30,1.24
254,3.73,-14.28,-8.93, 1.93,-0.20,1.11
255,4.07,-4.11,-9.13, 1.23,-0.62,0.09
256,4.60,-2.15,-4.75, 0.45,-1.52,0.21
257,3.01,-8.07,0.96, -0.40,-1.33,-0.29
258,3.14,-7.73,-6.62, -0.49,-0.93,0.30
259,4.90,-5.12,-8.84, -0.47,-0.39,0.64
260,5.44,-5.39,-8.86, -0.32,0.37,-0.13
261,4.72,-4.95,-7.69, 0.11,-0.04,-0.04
262,4.02,-4.80,-7.61, 0.11,0.40,-0.24
263,4.54,-3.78,-7.08, 0.17,0.27,-0.01
264,4.93,-3.74,-8.15, -0.08,0.22,0.13
265,3.75,-3.55,-7.48, -0.24,-0.07,0.23
266,4.07,-3.68,-8.03, -0.16,-0.14,0.28
267,3.92,-3.31,-8.23, -0.04,-0.32,0.26
268,3.95,-2.75,-6.87, 0.09,-0.31,0.23
269,4.54,-2.62,-6.65, 0.24,-0.24,0.18
270,4.36,-2.83,-5.89, 0.29,-0.38,0.05
271,4.37,-2.50,-5.65, 0.24,-0.24,-0.00
272,4.25,-2.35,-4.95, 0.25,-0.30,-0.06
273,3.61,-2.14,-4.50, 0.15,-0.25,-0.12
274,3.40,-2.31,-4.31, -0.04,-0.20,-0.27
275,3.70,-2.83,-4.32, -0.28,-0.08,-0.47
276,3.68,-3.02,-4.41, -0.45,0.06,-0.59
277,3.97,-3.67,-4.25, -0.72,0.14,-0.69
278,4.70,-4.92,-4.47, -1.02,0.13,-0.68
279,5.26,-6.28,-5.03, -1.18,0.27,-0.54
280,4.81,-7.39,-5.34, -0.96,0.33,-0.28
281,4.56,-7.87,-4.69, -0.78,0.38,-0.25
282,10.94,-2.05,-3.96, -1.02,1.06,0.60
283,-2.84,1.26,1.30, -1.52,-0.73,1.08
284,4.64,-6.56,-4.83, -0.92,1.10,-0.14
285,3.95,-6.49,-5.61, -0.96,1.74,0.42
286,3.43,-7.85,-9.30, -0.74,1.78,0.53
287,3.84,-7.19,-9.25, -0.26,1.81,0.30
288,3.53,-5.73,-7.89, -0.12,1.63,0.46
289,2.46,-6.07,-7.49, -0.65,1.62,0.40
290,2.56,-7.21,-7.26, -0.91,1.36,0.47
291,3.18,-7.29,-9.24, -0.68,1.08,0.87
292,2.74,-7.35,-9.49, -0.41,0.95,0.73
293,3.62,-6.01,-8.85, -0.15,0.73,0.97
294,3.60,-6.46,-8.15, -0.06,0.37,1.05
295,3.53,-6.01,-7.46, -0.02,0.21,1.24
296,3.22,-5.00,-6.68, 0.04,0.18,1.24
297,3.77,-4.50,-6.52, -0.30,0.29,1.08
298,4.93,-5.26,-7.50, -0.47,0.36,0.89
299,5.71,-6.38,-9.96, -0.18,0.27,0.76
300,6.34,-5.93,-9.36, 0.27,0.24,0.53
301,6.56,-5.06,-7.37, 0.29,0.25,0.23
302,7.15,-5.50,-6.44, -0.07,0.65,0.07
303,7.53,-6.68,-7.13, -0.33,0.68,0.23
304,7.30,-6.33,-8.28, -0.34,0.86,0.54
305,6.13,-5.31,-8.67, -0.35,0.66,0.69
306,4.90,-5.07,-9.07, -0.41,0.45,0.72
307,4.50,-5.26,-8.65, -0.34,-0.11,0.79
308,4.52,-5.09,-7.24, -0.23,-0.37,0.92
309,4.80,-4.61,-5.45, -0.22,-0.50,0.97
310,4.72,-4.25,-4.91, -0.24,-0.34,0.93
311,4.82,-4.23,-4.50, -0.28,-0.07,0.82
312,4.68,-4.07,-4.24, -0.41,0.26,0.78
313,4.80,-4.38,-4.64, -0.63,0.52,0.81
314,4.85,-4.66,-5.64, -0.73,0.70,0.88
315,4.23,-4.31,-6.28, -0.73,0.83,0.90
316,3.72,-4.27,-7.06, -0.70,0.83,0.85
317,3.53,-4.63,-7.68, -0.64,0.65,0.80
318,3.58,-4.72,-7.53, -0.56,0.40,0.74
319,3.79,-4.65,-6.99, -0.58,0.28,0.63
320,4.36,-5.04,-6.96, -0.58,0.20,0.56
321,4.36,-4.88,-6.51, -0.61,0.16,0.59
322,4.39,-5.10,-6.85, -0.79,0.07,0.66
323,4.73,-5.34,-7.63, -0.80,-0.03,0.67
324,4.77,-5.53,-7.94, -0.70,-0.23,0.54
325,4.63,-5.69,-7.92, -0.56,-0.22,0.36
326,5.09,-5.48,-8.73, -0.38,-0.37,0.17
327,5.54,-5.44,-9.91, 0.24,-0.40,0.09
328,4.79,-4.17,-7.76, 0.56,-0.50,-0.09
329,5.94,-3.76,-6.68, 0.48,-0.55,-0.48
330,8.28,-4.00,-5.33, 0.39,-0.32,-0.62
331,7.90,-4.34,-4.83, -0.07,-0.48,-0.45
332,7.39,-5.41,-4.77, -0.32,-0.33,-0.22
333,6.73,-5.82,-4.96, -0.38,0.06,0.31
334,6.11,-4.29,-3.88, -0.29,0.65,0.93
335,4.97,-3.22,-4.14, -0.44,0.69,1.04
336,4.07,-2.29,-5.08, -0.50,1.05,0.96
337,3.29,-2.49,-6.60, -0.53,1.07,0.60
338,4.76,-3.03,-5.66, -0.29,1.12,0.36
339,4.51,-3.59,-6.32, -0.03,1.44,0.33
340,2.85,-5.29,-9.84, 0.28,0.88,0.69
341,3.19,-3.58,-8.07, 0.35,1.03,1.01
342,3.56,-2.34,-5.44, -0.05,0.47,1.23
343,3.26,-1.11,-3.78, -0.61,0.19,1.38
344,2.28,-1.65,-3.84, -1.18,0.36,1.31
345,1.36,-2.36,-5.83, -1.36,0.54,1.12
346,1.47,-3.61,-6.61, -1.11,0.73,0.78
347,2.27,-3.68,-6.53, -0.79,0.97,0.46
348,1.75,-3.61,-6.71, -0.54,1.11,0.22
349,1.16,-4.25,-7.57, -0.32,1.13,0.09
350,3.17,-6.16,-7.59, -0.20,0.68,0.12
351,3.32,-5.02,-5.49, -0.35,0.77,0.32
352,3.89,-5.71,-5.81, -0.74,0.84,0.43
353,4.90,-7.28,-8.09, -0.88,0.35,0.79
354,4.17,-5.68,-6.98, -0.61,0.41,0.81
355,6.02,-4.39,-5.74, -0.16,0.46,0.48
356,4.58,-5.17,-7.99, -0.36,0.72,0.87
357,3.13,-5.65,-8.45, -0.67,0.38,1.02
358,5.06,-7.02,-8.71, -0.70,0.61,1.00
359,4.81,-7.30,-8.69, -0.45,0.58,1.12
360,4.06,-6.96,-8.82, -0.12,0.90,0.89
361,5.08,-7.06,-7.83, 0.05,0.88,0.76
362,5.50,-6.68,-8.00, 0.01,0.49,1.11
363,5.30,-5.78,-7.92, -0.20,0.07,1.54
364,-0.07,-3.74,-5.06, -0.70,-0.75,1.54
365,1.75,-3.90,-3.84, -1.43,-1.79,1.22
366,4.55,-4.98,-4.75, -1.64,-1.93,1.11
367,9.63,-4.40,-8.40, -1.53,-1.55,1.25
368,-0.88,-2.97,-8.05, -0.24,-0.45,0.86
369,3.17,-10.98,-1.72, 1.89,1.67,0.68
370,2.12,-5.64,-8.71, -0.35,1.30,-3.07
371,4.36,-0.96,-11.20, 0.61,0.76,1.28
372,2.53,-4.53,-7.13, 0.15,1.62,1.05
373,1.96,-2.62,-5.52, 0.23,0.87,1.08
374,2.98,-4.26,-4.99, -0.59,1.21,0.94
375,2.99,-6.35,-7.06, -0.76,1.20,0.65
376,3.04,-6.17,-7.02, -0.63,1.10,0.52
377,3.49,-6.01,-6.70, -0.48,1.00,0.40
378,3.32,-6.59,-8.51, -0.13,0.72,0.31
379,3.17,-6.32,-7.30, 0.14,0.56,0.35
380,3.89,-6.06,-6.32, 0.10,0.51,0.34
381,4.35,-6.13,-7.07, -0.03,0.76,0.47
382,3.72,-5.90,-7.24, 0.35,0.65,0.59
383,4.14,-5.26,-6.77, 0.17,1.02,0.69
384,3.87,-4.78,-6.07, 0.23,0.90,0.71
385,3.27,-4.59,-4.22, -0.21,0.88,0.69
386,3.11,-5.18,-4.89, -0.52,0.82,0.73
387,2.00,-5.37,-5.72, -0.59,0.42,0.63
388,2.08,-5.60,-7.12, -0.62,0.33,0.51
389,3.21,-4.32,-7.70, -0.55,0.36,0.51
390,3.98,-3.21,-6.61, -0.75,0.62,0.68
391,3.04,-3.92,-6.63, -0.75,0.75,0.74
392,2.60,-5.55,-7.52, -0.68,0.92,0.53
393,2.12,-6.20,-7.76, -0.47,0.93,0.33
394,2.55,-5.63,-6.29, -0.10,0.62,0.25
395,3.37,-5.14,-5.23, -0.30,0.54,0.34
396,4.22,-4.71,-6.51, -0.54,0.35,0.55
397,3.99,-5.83,-8.96, -0.39,0.13,0.60
398,3.54,-6.03,-9.67, -0.08,0.15,0.55
399,3.42,-5.27,-7.93, 0.07,0.15,0.39
400,3.58,-4.72,-6.86, 0.03,0.22,0.31
401,3.81,-4.22,-5.91, -0.12,0.30,0.30
402,3.17,-4.89,-5.97, -0.25,0.24,0.29
403,2.71,-5.05,-6.30, -0.36,0.25,0.09
404,1.37,-3.86,-5.81, -0.29,0.21,-0.16
405,1.99,-5.88,-5.57, -0.31,-0.07,-0.19
406,1.65,-5.57,-5.68, -0.34,-0.28,-0.38
407,2.99,-5.99,-6.28, -0.49,-0.50,-0.72
408,4.59,-5.97,-6.69, -0.61,-0.16,-0.76
409,3.41,-6.68,-8.13, -0.14,-0.47,-0.84
410,3.88,-5.53,-7.91, -0.10,-0.19,-0.62
411,4.27,-6.35,-8.34, 0.31,-0.34,-0.46
412,3.17,-4.54,-6.36, 0.18,-0.15,-0.16
413,3.58,-4.99,-6.41, -0.11,-0.16,-0.14
414,4.69,-5.45,-9.57, -0.21,0.09,0.04
415,4.25,-5.03,-10.19, 0.14,0.19,0.32
416,2.54,-5.27,-6.79, 0.25,-0.07,0.21
417,2.94,-5.53,-6.31, 0.04,0.20,0.07
418,3.03,-4.95,-5.39, 0.02,-0.13,0.07
419,3.38,-5.22,-6.32, -0.42,0.22,0.15
420,3.41,-5.84,-6.43, -0.32,0.05,0.18
421,2.93,-5.99,-6.39, -0.12,0.08,0.20
422,2.87,-4.87,-5.71, -0.31,0.18,0.13
423,3.49,-6.05,-7.37, -0.28,0.09,0.10
424,7.02,-5.56,-7.26, -0.22,0.48,-0.23
425,2.86,-4.15,-5.04, 0.71,0.40,-0.08
426,3.92,-4.39,-4.98, 0.26,1.14,-0.26
427,3.27,-6.17,-8.41, 0.22,0.94,-0.11
428,1.24,-5.40,-6.11, 0.13,-0.01,0.03
429,3.10,-6.05,-6.84, -0.54,-0.34,0.35
430,4.09,-6.37,-6.77, -0.34,-1.21,0.73
431,3.66,-6.32,-6.29, -0.72,-0.94,0.92
432,2.77,-6.76,-6.44, -0.58,-0.92,0.81
433,2.45,-6.44,-7.37, -0.45,-0.08,0.54
434,1.93,-5.38,-6.72, -0.24,0.34,0.16
435,2.15,-4.41,-5.19, -0.32,0.53,-0.18
436,3.58,-4.77,-6.17, -0.37,0.80,-0.25
437,3.33,-4.37,-5.50, -0.25,0.83,-0.28
438,5.23,-5.78,-9.04, -0.53,1.06,-0.13
439,3.80,-5.80,-8.35, -0.47,0.19,0.11
440,4.02,-6.71,-10.57, -0.57,0.01,0.43
441,4.73,-6.38,-9.49, -0.31,-0.55,0.72
442,3.37,-4.76,-7.33, -0.20,-0.31,0.65
443,4.79,-4.55,-7.90, -0.32,0.12,0.44
444,5.71,-6.23,-11.10, 0.21,0.14,0.49
445,3.97,-6.42,-7.70, 0.41,0.24,0.42
446,2.59,-4.89,-5.43, 0.14,0.28,0.24
447,2.83,-4.25,-5.26, -0.16,0.35,0.14
448,3.47,-5.02,-5.99, -0.14,0.08,0.08
449,3.98,-6.02,-6.79, -0.20,0.20,0.07
450,5.23,-6.86,-6.05, 0.02,0.08,0.18
451,3.67,-5.48,-4.75, -0.09,0.39,0.17
452,2.02,-4.30,-5.81, -0.15,0.57,-0.04
453,1.53,-4.01,-7.49, -0.08,0.48,-0.35
454,1.86,-4.84,-7.91, -0.03,0.25,-0.52
455,4.84,-6.18,-6.73, -0.00,0.19,-0.48
456,4.33,-5.31,-5.79, -0.00,0.12,-0.43
457,4.98,-5.01,-6.14, -0.15,0.21,-0.26
458,4.34,-4.45,-5.93, 0.00,-0.07,-0.25
459,4.84,-5.11,-5.70, -0.23,0.09,-0.30
460,4.97,-5.00,-5.73, -0.24,0.12,-0.25
461,4.97,-4.95,-6.05, -0.25,0.05,-0.16
462,4.50,-4.63,-5.87, -0.30,0.06,-0.09
463,4.76,-5.44,-6.64, -0.19,-0.08,-0.02
464,4.39,-5.23,-6.29, -0.20,-0.07,-0.04
465,4.64,-5.04,-6.44, -0.15,-0.15,-0.07
466,5.07,-5.21,-6.90, -0.15,-0.16,-0.02
467,5.07,-5.40,-7.00, -0.08,-0.18,-0.01
468,4.94,-5.37,-6.83, -0.08,-0.09,-0.04
469,4.71,-5.21,-6.62, -0.08,-0.08,-0.06
470,4.77,-4.94,-6.61, -0.12,-0.02,-0.00
471,4.60,-4.88,-6.56, -0.12,-0.01,-0.01
472,4.42,-4.97,-6.41, -0.18,0.02,-0.01
473,4.20,-4.98,-6.37, -0.18,0.03,-0.03
474,4.53,-5.04,-6.85, -0.16,0.09,0.01
475,4.30,-4.68,-6.75, -0.10,0.03,0.04
476,4.21,-4.40,-6.62, -0.12,-0.04,0.06
477,4.54,-4.86,-6.88, -0.14,-0.07,0.09
478,4.82,-5.23,-7.24, -0.07,-0.01,0.10
479,4.57,-5.14,-7.19, -0.01,0.08,0.02
480,4.56,-4.73,-7.09, 0.01,0.10,-0.02
481,4.22,-4.75,-6.79, -0.00,-0.00,0.04
482,4.30,-5.04,-6.65, -0.00,-0.03,0.06
483,4.33,-5.26,-6.70, -0.04,-0.03,0.02
484,4.53,-5.32,-6.90, 0.01,0.02,-0.01
485,4.29,-4.93,-6.29, 0.02,0.04,-0.01
486,4.19,-4.74,-6.19, -0.04,0.04,-0.01
487,4.31,-4.86,-6.34, -0.11,0.03,-0.02
488,4.50,-5.11,-6.83, -0.11,0.03,-0.01
489,4.59,-5.13,-6.77, -0.04,0.05,-0.01
490,4.51,-4.99,-6.83, -0.01,0.08,-0.01
491,4.55,-5.03,-6.77, 0.00,0.09,-0.01
492,4.61,-4.97,-6.70, -0.03,0.10,-0.03
493,4.24,-4.76,-6.46, -0.05,0.08,-0.05
494,4.65,-5.00,-6.79, -0.04,0.12,-0.03
495,4.12,-4.43,-6.38, -0.02,0.02,-0.06
496,4.29,-4.76,-6.42, -0.08,0.02,-0.05
497,4.27,-4.78,-6.20, -0.10,0.01,-0.06
498,4.53,-5.04,-6.52, -0.12,0.02,-0.05
499,4.42,-5.00,-6.46, -0.06,-0.01,-0.01
500,4.39,-4.83,-6.59, -0.07,-0.01,0.01
501,4.41,-4.81,-6.43, -0.08,-0.02,-0.02
502,4.54,-5.01,-6.59, -0.11,0.03,-0.04
503,4.38,-4.96,-6.45, -0.11,0.01,-0.06
504,4.35,-4.78,-6.29, -0.11,0.01,-0.03
505,4.46,-4.65,-6.49, -0.11,-0.01,-0.02
506,4.29,-4.53,-6.32, -0.11,-0.08,0.02
507,4.69,-5.05,-6.86, -0.17,-0.06,-0.02
508,4.93,-5.34,-7.24, -0.09,-0.01,-0.04
509,4.72,-5.09,-7.00, -0.04,0.03,-0.04
510,4.53,-4.73,-6.62, -0.02,0.02,-0.01
511,4.45,-4.30,-6.28, -0.08,-0.02,0.00
512,4.90,-4.75,-6.59, -0.12,-0.07,0.03
513,4.92,-5.31,-6.74, -0.11,-0.03,0.07
514,4.91,-5.24,-6.76, -0.07,0.03,0.07
515,4.59,-4.64,-6.37, -0.06,0.02,0.09
516,4.64,-4.68,-6.50, -0.09,-0.02,0.11
517,4.57,-4.65,-6.41, -0.11,-0.01,0.12
518,4.86,-4.73,-6.86, -0.10,-0.01,0.13
519,4.55,-4.63,-6.69, -0.06,-0.02,0.13
520,4.44,-4.73,-6.50, -0.09,0.00,0.11
521,4.44,-4.71,-6.60, -0.12,0.04,0.07
522,4.36,-4.65,-6.57, -0.12,0.07,0.04
523,4.42,-4.78,-6.87, -0.10,0.08,0.01
524,4.45,-4.85,-6.83, -0.09,0.04,0.01
525,4.28,-4.84,-6.70, -0.06,0.03,-0.01
526,4.32,-4.78,-6.65, -0.10,0.02,-0.03
527,4.41,-4.67,-6.52, -0.11,0.01,-0.02
528,4.41,-4.81,-6.58, -0.11,-0.02,-0.01
529,4.45,-5.01,-6.66, -0.11,0.02,0.00
530,4.38,-4.93,-6.63, -0.07,-0.00,-0.01
531,4.33,-4.85,-6.64, -0.08,0.02,-0.01
532,4.51,-5.00,-6.73, -0.07,0.01,-0.02
533,4.46,-4.90,-6.56, -0.10,0.03,-0.03
534,4.59,-5.01,-6.60, -0.08,0.03,-0.02
535,4.55,-5.06,-6.68, -0.07,0.01,-0.01
536,4.51,-4.98,-6.58, -0.08,0.01,0.00
537,4.74,-4.98,-6.81, -0.07,0.01,-0.00
538,4.58,-4.96,-6.78, -0.04,0.03,-0.01
539,4.56,-4.70,-6.49, -0.05,0.03,-0.01
540,4.60,-4.72,-6.43, -0.08,0.01,-0.01
541,4.87,-5.09,-6.73, -0.06,0.02,0.02
542,4.76,-4.97,-6.58, -0.02,0.05,0.04
543,4.61,-4.62,-6.39, -0.02,0.04,0.05
544,4.65,-4.56,-6.42, -0.07,0.02,0.05
545,4.72,-5.08,-6.75, -0.07,0.01,0.05
546,4.80,-5.31,-6.87, -0.01,0.05,0.06
547,4.49,-4.71,-6.32, 0.03,0.04,0.08
548,4.30,-4.50,-6.16, -0.05,-0.00,0.06
549,4.66,-4.87,-6.41, -0.08,-0.01,0.06
550,4.75,-4.98,-6.82, -0.06,0.01,0.06
551,4.70,-5.01,-6.72, -0.04,0.03,0.05
552,4.50,-4.83,-6.65, -0.04,0.05,0.04
553,4.52,-4.78,-6.36, -0.05,0.04,0.04
554,4.52,-4.73,-6.38, -0.07,0.03,0.03
555,4.59,-4.74,-6.44, -0.10,0.00,0.04
556,4.66,-4.94,-6.65, -0.08,-0.01,0.05
557,4.56,-4.89,-6.60, -0.04,0.00,0.03
558,4.35,-4.60,-6.28, -0.03,0.00,0.00
559,4.34,-4.57,-6.23, -0.10,-0.03,-0.01
560,4.50,-4.71,-6.43, -0.15,-0.00,-0.07
561,4.54,-4.98,-6.46, -0.17,0.04,-0.11
562,4.46,-4.90,-6.30, -0.18,0.03,-0.11
563,4.30,-4.86,-6.27, -0.17,0.00,-0.06
564,4.68,-5.22,-6.55, -0.12,-0.05,0.03
565,4.66,-5.35,-6.73, -0.05,-0.08,0.09
566,4.22,-5.18,-6.46, -0.02,-0.07,0.09
567,4.00,-5.04,-6.25, -0.08,-0.03,0.06
568,3.96,-5.14,-6.41, -0.12,-0.01,0.04
569,3.92,-5.85,-6.78, -0.10,-0.01,0.06
570,3.70,-6.00,-6.65, -0.07,0.00,0.06
571,3.56,-5.59,-6.57, -0.10,0.00,0.01
572,3.87,-5.91,-7.04, -0.16,0.03,-0.05
573,4.32,-6.33,-7.43, -0.08,0.09,-0.08
574,4.10,-6.09,-7.11, 0.02,0.15,-0.05
575,3.57,-5.39,-6.28, -0.00,0.19,-0.07
576,3.60,-5.47,-6.34, -0.03,0.13,-0.06
577,3.83,-5.70,-6.61, -0.03,0.07,-0.01
578,3.88,-5.84,-6.46, -0.03,0.06,0.01
579,3.75,-5.22,-5.98, -0.06,0.09,0.01
580,3.46,-4.93,-5.88, -0.07,0.01,-0.11
581,3.89,-5.69,-6.41, -0.13,0.04,-0.01
582,3.99,-5.38,-6.45, -0.08,0.01,0.03
583,3.96,-5.31,-6.82, -0.06,0.04,-0.00
584,3.73,-4.92,-6.34, -0.10,0.11,-0.08
585,3.98,-5.16,-6.43, -0.11,0.14,-0.12
586,4.47,-5.47,-6.51, -0.03,0.18,-0.11
587,4.48,-5.27,-6.59, -0.00,0.15,-0.10
588,4.21,-5.08,-6.27, 0.01,0.02,-0.09
589,4.05,-5.27,-6.35, -0.02,-0.11,-0.06
590,4.26,-5.54,-6.14, -0.12,-0.27,0.00
591,5.09,-6.14,-6.80, -0.20,-0.25,0.08
592,5.25,-5.88,-6.61, -0.12,-0.19,0.09
593,5.36,-5.90,-6.35, 0.00,-0.06,0.07
594,4.68,-5.22,-5.75, 0.07,-0.03,0.09
595,4.58,-5.36,-5.64, 0.08,-0.07,0.12
596,4.38,-5.39,-5.64, 0.06,-0.13,0.10
597,4.17,-5.31,-5.53, -0.02,-0.19,0.01
598,4.45,-5.74,-6.16, -0.06,-0.18,-0.06
599,4.75,-5.87,-6.25, 0.13,-0.15,-0.08
600,4.52,-5.51,-6.14, 0.18,-0.16,-0.14
601,4.39,-5.54,-6.10, 0.17,-0.19,-0.21
602,4.26,-5.59,-6.05, 0.15,-0.22,-0.26
603,4.26,-5.68,-6.07, 0.12,-0.25,-0.27
604,4.58,-5.77,-6.53, 0.11,-0.26,-0.26
605,4.84,-5.64,-6.70, 0.22,-0.20,-0.24
606,4.51,-5.23,-6.43, 0.25,-0.17,-0.26
607,4.22,-5.30,-6.44, 0.22,-0.17,-0.27
608,4.09,-5.30,-6.37, 0.18,-0.23,-0.24
609,3.90,-5.14,-6.41, 0.13,-0.32,-0.18
610,4.04,-5.20,-6.71, 0.07,-0.46,-0.10
611,3.98,-5.06,-6.81, 0.05,-0.51,-0.10
612,3.42,-4.71,-7.10, -0.02,-0.54,-0.16
613,3.89,-5.06,-8.41, -0.08,-0.58,-0.15
614,5.14,-6.16,-9.28, 0.05,-0.54,-0.07
615,4.88,-5.68,-7.74, 0.31,-0.33,-0.05
616,4.00,-4.12,-5.87, 0.34,-0.12,-0.16
617,3.70,-3.79,-5.37, 0.20,-0.03,-0.30
618,4.14,-4.24,-6.65, -0.02,-0.13,-0.20
619,4.37,-4.35,-7.11, -0.08,-0.17,-0.20
620,4.42,-4.58,-7.10, -0.10,-0.17,-0.24
621,4.27,-4.77,-6.98, -0.15,-0.11,-0.27
622,4.28,-5.22,-7.17, -0.17,-0.06,-0.25
623,4.34,-5.59,-7.48, -0.06,0.00,-0.18
624,4.03,-5.19,-7.00, 0.08,0.02,-0.12
625,3.66,-4.77,-6.45, 0.14,-0.03,-0.01
626,3.59,-4.69,-6.11, 0.12,-0.08,0.03
627,4.00,-4.94,-6.32, 0.03,-0.03,-0.03
628,4.60,-5.25,-6.63, 0.02,0.05,-0.08
629,4.41,-4.99,-6.54, 0.01,0.06,-0.07
630,4.49,-4.73,-7.19, -0.05,-0.12,0.04
631,4.72,-4.95,-7.88, -0.10,-0.37,0.25
632,5.66,-6.13,-9.23, -0.11,-0.49,0.41
633,5.99,-5.95,-9.59, -0.02,-0.46,0.45
634,6.14,-5.09,-9.69, 0.13,-0.35,0.40
635,6.19,-4.70,-9.27, 0.40,-0.22,0.29
636,5.12,-4.01,-7.23, 0.57,-0.17,0.07
637,4.20,-3.15,-5.63, 0.50,-0.13,0.02
638,3.72,-3.74,-5.55, 0.24,-0.16,0.00
639,4.61,-4.14,-6.56, 0.10,-0.09,0.06
640,4.82,-4.45,-6.36, 0.04,0.10,0.06
641,4.85,-4.12,-5.92, 0.05,0.30,0.00
642,4.53,-3.82,-5.29, 0.07,0.40,-0.03
643,3.88,-3.38,-4.61, -0.01,0.38,-0.03
644,3.93,-3.70,-4.57, -0.12,0.35,-0.05
645,3.86,-3.45,-4.58, -0.27,0.27,-0.13
646,4.39,-3.58,-5.11, -0.42,0.20,-0.20
647,4.70,-3.66,-5.64, -0.37,0.09,-0.24
648,5.41,-4.29,-5.86, -0.35,0.05,-0.25
649,5.17,-3.56,-4.91, -0.39,0.09,-0.29
650,4.90,-3.34,-6.01, -0.59,0.02,-0.29
651,5.38,-4.49,-7.81, -0.63,-0.08,-0.26
652,6.20,-5.35,-8.43, -0.38,-0.17,-0.18
653,5.87,-4.86,-7.62, -0.19,-0.14,-0.13
654,5.81,-4.61,-7.18, -0.12,-0.02,-0.18
655,5.66,-4.37,-6.84, -0.04,0.07,-0.13
656,5.72,-4.22,-6.62, -0.07,0.06,-0.08
657,5.66,-3.84,-6.24, -0.13,0.05,0.05
658,6.17,-3.86,-6.70, -0.29,-0.00,0.23
659,6.22,-4.40,-7.40, -0.42,-0.03,0.31
660,6.65,-4.83,-7.89, -0.26,0.15,0.37
661,5.72,-5.04,-8.68, 0.06,0.12,0.41
662,4.88,-4.46,-7.92, 0.24,0.06,0.42
663,4.69,-4.01,-6.84, 0.26,0.02,0.35
664,4.62,-3.55,-5.93, 0.13,0.07,0.20
665,4.92,-3.39,-5.84, -0.09,0.21,0.04
666,5.30,-3.35,-6.17, -0.19,0.33,-0.03
667,5.25,-3.57,-6.79, -0.19,0.34,-0.04
668,5.10,-3.79,-6.74, -0.15,0.28,0.02
669,4.93,-3.79,-6.55, -0.12,0.21,0.08
670,5.00,-3.73,-6.37, -0.10,0.14,0.15
671,4.63,-3.62,-6.16, -0.10,0.05,0.19
672,4.24,-3.47,-5.76, -0.11,-0.12,0.15
673,4.50,-3.97,-5.95, -0.22,-0.27,0.05
674,5.34,-5.09,-7.02, -0.22,-0.24,-0.01
675,5.87,-5.01,-7.57, -0.02,-0.01,-0.03
676,5.26,-3.95,-7.23, 0.08,0.09,-0.08
677,4.94,-3.03,-6.88, 0.05,0.12,-0.12
678,4.83,-3.22,-6.80, -0.03,0.08,-0.15
679,5.11,-3.88,-7.15, -0.05,0.05,-0.15
680,5.23,-4.01,-6.92, 0.02,0.06,-0.08
681,5.08,-3.76,-6.37, 0.05,0.08,-0.03
682,5.15,-3.44,-6.49, 0.05,0.02,0.03
683,4.91,-4.04,-7.07, 0.06,-0.02,0.09
684,5.42,-4.87,-6.25, 0.02,0.01,0.17
685,5.04,-4.53,-5.07, -0.05,0.05,0.20
686,3.66,-3.58,-5.11, -0.30,-0.05,0.26
687,3.68,-4.63,-7.46, -0.50,-0.29,0.31
688,5.43,-6.89,-9.11, -0.33,-0.32,0.41
689,5.12,-6.27,-7.60, -0.08,-0.14,0.36
690,3.82,-4.03,-5.91, -0.10,-0.11,0.22
691,4.19,-4.09,-5.74, -0.24,-0.22,0.15
692,3.99,-4.74,-6.42, -0.35,-0.24,0.04
693,5.04,-5.77,-6.87, -0.32,-0.09,-0.05
694,5.27,-5.79,-6.58, -0.19,0.13,-0.10
695,4.59,-4.71,-5.52, -0.12,0.24,-0.09
696,4.16,-4.19,-5.04, -0.22,0.19,-0.10
697,4.54,-4.78,-5.52, -0.34,0.09,-0.07
698,5.20,-6.16,-6.45, -0.29,0.07,0.01
699,5.39,-6.34,-6.83, -0.15,0.17,0.12
700,4.59,-5.74,-7.29, -0.01,0.20,0.24
701,3.32,-4.23,-5.89, 0.26,0.08,0.18
702,4.00,-3.59,-5.62, -0.03,0.18,0.11
703,5.28,-5.54,-8.24, 0.18,-0.00,0.07
704,5.22,-6.11,-5.74, 0.44,0.08,0.13
705,4.31,-5.46,-6.14, 0.04,0.50,0.07
706,4.52,-3.83,-3.98, 0.00,0.13,0.25
707,5.07,-3.11,-3.54, -0.61,0.12,0.38
708,5.88,-5.37,-8.27, -0.96,0.12,0.65
709,5.41,-6.94,-11.57, -0.68,0.48,0.60
710,4.45,-6.57,-10.24, -0.09,0.64,0.46
711,2.48,-4.19,-7.57, 0.21,0.47,0.37
712,2.19,-3.00,-5.72, 0.11,0.18,0.21
713,2.57,-3.18,-6.11, -0.04,-0.01,-0.11
714,5.13,-5.58,-5.40, -0.26,0.35,0.09
715,3.27,-6.48,-5.80, -0.13,-0.25,-0.23
716,5.08,-4.73,-7.50, -0.37,0.61,0.32
717,2.98,-4.83,-6.78, -0.33,-0.03,0.10
718,3.34,-5.07,-6.54, -0.17,0.20,0.11
719,3.16,-5.09,-5.39, -0.16,-0.12,0.09
720,3.64,-5.55,-5.55, -0.26,0.10,0.14
721,3.97,-5.78,-6.77, -0.26,0.01,0.21
722,3.87,-5.81,-7.15, -0.03,0.11,0.18
723,3.67,-5.36,-6.27, 0.15,0.18,0.07
724,3.90,-4.42,-4.62, 0.01,0.05,-0.04
725,3.61,-4.37,-5.74, -0.34,-0.22,-0.03
726,4.54,-6.46,-8.81, -0.56,-0.18,-0.11
727,5.78,-7.86,-10.64, -0.20,-0.03,-0.03
728,5.27,-6.87,-8.66, 0.36,0.11,0.03
729,3.50,-4.75,-5.26, 0.57,-0.05,-0.01
730,2.98,-3.79,-4.09, 0.26,-0.29,-0.11
731,3.95,-5.08,-5.31, -0.04,-0.45,-0.21
732,5.19,-6.04,-6.17, -0.04,-0.22,-0.29
733,5.51,-6.01,-5.91, -0.01,-0.03,-0.31
734,5.16,-5.30,-6.03, 0.03,0.08,-0.27
735,4.69,-4.50,-5.88, -0.06,0.10,-0.24
736,4.83,-4.95,-6.29, -0.14,0.15,-0.25
737,5.07,-5.37,-6.62, -0.10,0.20,-0.23
738,5.12,-5.36,-6.44, -0.01,0.28,-0.16
739,4.79,-4.96,-6.00, -0.01,0.29,-0.06
740,4.60,-4.56,-5.74, -0.08,0.28,0.01
741,4.60,-4.35,-6.05, -0.12,0.25,0.02
742,4.40,-4.39,-5.61, -0.18,0.14,0.02
743,4.30,-4.67,-6.42, -0.26,-0.17,0.13
744,4.52,-5.23,-8.78, -0.35,-0.19,0.18
745,5.71,-6.19,-9.18, -0.12,0.12,0.17
746,4.62,-4.49,-7.02, 0.11,0.33,0.12
747,3.61,-3.13,-5.68, -0.06,0.32,0.00
748,3.61,-3.21,-5.45, -0.38,0.11,-0.11
749,4.60,-5.02,-7.06, -0.59,-0.02,-0.13
750,5.27,-6.51,-8.85, -0.51,-0.08,-0.03
751,5.56,-6.32,-8.70, -0.18,-0.01,0.15
752,4.15,-4.26,-7.28, 0.00,-0.02,0.22
753,3.64,-3.22,-6.21, 0.03,-0.05,0.21
754,3.77,-3.03,-5.41, -0.09,0.00,0.08
755,5.28,-4.54,-6.17, -0.13,0.04,0.05
756,5.80,-5.50,-6.25, 0.10,0.19,0.14
757,4.70,-4.52,-5.16, 0.25,0.44,0.09
758,3.90,-3.89,-4.76, 0.57,0.72,0.02
759,2.83,-3.26,-5.43, -0.00,-0.19,0.24
760,3.35,-3.21,-5.85, -0.05,-0.16,0.10
761,3.49,-3.26,-5.63, -0.21,-0.27,-0.07
762,3.77,-3.70,-6.16, -0.46,-0.63,-0.07
763,3.59,-5.17,-7.36, -0.60,-0.68,-0.00
764,5.62,-7.45,-9.75, -0.55,-0.85,0.29
765,5.78,-7.22,-9.80, -0.23,-0.50,0.41
766,5.02,-6.48,-8.51, 0.10,0.00,0.17
767,3.48,-4.47,-6.43, 0.31,0.10,0.04
768,2.61,-3.89,-4.85, 0.11,-0.18,-0.05
769,3.72,-5.00,-5.19, -0.19,-0.38,-0.08
770,5.08,-6.33,-6.33, -0.27,-0.33,-0.14
771,5.08,-6.21,-6.17, -0.15,-0.05,-0.21
772,4.66,-5.36,-6.29, -0.02,0.12,-0.26
773,4.02,-4.52,-5.62, -0.07,0.08,-0.30
774,4.33,-4.57,-5.55, -0.18,0.07,-0.33
775,5.21,-5.35,-6.01, -0.22,0.13,-0.34
776,5.54,-5.80,-6.22, -0.16,0.29,-0.30
777,5.43,-5.92,-6.29, -0.04,0.46,-0.22
778,4.16,-4.75,-5.91, -0.04,0.36,-0.06
779,4.01,-4.30,-6.11, -0.15,0.23,0.03
780,5.10,-5.34,-6.95, -0.19,0.18,0.12
781,5.46,-5.95,-7.23, -0.09,0.28,0.27
782,6.20,-6.40,-7.08, 0.02,0.63,0.42
783,2.36,-5.24,-4.63, -0.26,1.13,0.45
784,4.70,4.98,-5.32, -1.20,1.12,0.53
785,0.15,-0.39,-8.42, -1.36,0.62,0.68
786,2.09,-5.85,-6.41, -1.53,-0.01,1.00
787,4.69,-7.92,-9.31, -1.22,0.06,0.55
788,4.41,-8.81,-8.96, -0.53,0.05,0.43
789,4.86,-6.22,-10.02, -0.02,0.19,0.42
790,3.06,-4.90,-7.73, 0.28,0.06,0.22
791,2.00,-3.61,-5.93, 0.02,-0.22,0.05
792,3.29,-4.30,-6.20, -0.13,-0.37,-0.05
793,3.11,-5.05,-5.17, 0.05,-0.24,-0.32
794,3.81,-5.10,-5.95, 0.21,0.08,-0.45
795,3.06,-5.54,-5.34, 0.21,-0.02,-0.54
796,3.07,-5.32,-5.91, -0.04,0.18,-0.50
797,3.88,-5.53,-6.48, 0.14,-0.08,-0.45
798,4.31,-6.18,-6.88, 0.13,0.03,-0.43
799,3.70,-5.47,-6.28, 0.16,-0.10,-0.38
800,3.23,-5.20,-7.78, -0.02,-0.29,-0.29
801,4.44,-5.70,-8.83, 0.05,-0.58,-0.10
802,4.52,-5.71,-8.38, 0.13,-0.56,-0.11
803,4.33,-5.16,-7.76, -0.00,-0.26,-0.26
804,4.63,-4.95,-7.71, 0.19,-0.29,-0.31
805,4.06,-4.80,-6.84, 0.16,-0.25,-0.32
806,4.32,-5.01,-6.66, 0.07,-0.22,-0.24
807,4.46,-4.96,-6.43, 0.14,-0.28,-0.19
808,4.25,-4.54,-6.17, 0.20,-0.10,-0.15
809,4.26,-4.75,-6.16, 0.24,-0.16,-0.11
810,4.40,-4.73,-6.33, 0.12,-0.10,-0.08
811,4.86,-4.97,-6.26, 0.08,-0.11,-0.06
812,4.58,-4.87,-6.84, 0.07,-0.13,-0.02
813,4.82,-5.12,-7.39, 0.14,-0.14,0.05
814,4.55,-5.06,-6.79, 0.17,-0.15,0.07
815,4.43,-4.96,-6.55, 0.08,-0.08,0.05
816,4.62,-5.03,-6.63, 0.07,-0.00,0.09
817,4.82,-5.00,-6.43, 0.12,0.09,0.09
818,4.49,-4.60,-6.15, 0.16,0.19,0.02
819,3.83,-4.16,-5.70, 0.13,0.11,-0.04
820,4.07,-4.23,-5.76, 0.05,0.07,-0.03
821,4.63,-4.71,-6.15, 0.15,0.01,-0.03
822,4.33,-4.38,-5.55, 0.19,0.03,-0.06
823,3.90,-4.01,-4.47, 0.21,0.08,-0.07
824,3.59,-3.00,-3.55, 0.24,0.15,-0.11
825,2.73,-2.61,-2.09, 0.25,0.14,-0.15
826,2.00,-1.42,0.22, 0.25,0.23,-0.30
827,0.70,-3.85,-0.80, 0.54,0.52,-0.55
828,-2.55,-5.55,4.78, -0.48,-0.40,-0.67
829,5.59,-9.32,-3.96, 2.65,0.89,1.50
830,-1.22,-1.56,-3.85, -0.84,-0.52,0.98
831,4.92,-6.24,-6.46, 0.07,0.25,-0.03
832,19.58,21.42,3.15, -2.16,1.21,1.10
833,-1.26,-1.99,-3.37, 0.34,0.66,-0.00
834,3.10,0.55,-2.26, 0.80,0.89,-0.18
835,-3.45,6.35,7.16, 2.31,0.27,3.15
836,8.70,-6.67,-13.07, -3.35,-0.89,-6.16
837,36.51,26.74,-19.74, -1.00,-4.72,8.73
838,5.86,-15.64,-78.45, -4.05,1.99,1.65
839,11.91,-2.70,0.29, 0.39,0.16,-2.59
840,1.82,-1.61,-7.30, 0.71,0.31,0.57
841,7.82,-5.37,-9.09, -0.45,-0.75,0.44
842,8.43,-7.13,-10.67, -0.79,-0.23,0.41
843,10.55,-10.24,-12.24, 0.17,-0.18,0.12
844,7.87,-8.18,-10.32, 0.38,0.13,0.26
845,5.33,-5.62,-8.79, 0.08,-0.19,0.23
846,5.02,-5.75,-8.27, -0.35,-0.48,0.09
847,7.49,-7.92,-9.45, -0.47,-0.48,-0.15
848,8.52,-9.13,-9.42, -0.02,-0.17,-0.16
849,7.03,-7.31,-7.87, 0.12,0.04,-0.16
850,6.28,-5.80,-7.28, -0.13,-0.12,-0.08
851,6.28,-5.95,-7.62, -0.39,-0.28,-0.04
852,6.77,-6.49,-8.15, -0.47,-0.33,-0.03
853,7.27,-7.37,-8.68, -0.24,-0.24,-0.02
854,6.22,-6.41,-7.86, -0.07,-0.03,-0.03
855,5.51,-5.91,-7.40, -0.10,-0.14,-0.07
856,5.06,-5.92,-7.26, -0.18,-0.18,-0.07
857,5.22,-6.10,-7.28, -0.14,-0.08,-0.14
858,5.75,-6.45,-7.84, 0.00,-0.01,-0.13
859,6.03,-6.94,-7.47, 0.23,-0.14,-0.02
860,5.16,-5.96,-6.82, -0.01,0.10,-0.06
861,4.91,-5.03,-6.71, -0.22,0.04,-0.01
862,5.25,-5.32,-6.88, -0.23,-0.05,-0.01
863,5.84,-5.55,-7.37, -0.11,0.16,0.11
864,4.61,-4.36,-6.83, 0.13,0.04,0.14
865,3.91,-3.86,-6.42, -0.06,0.07,0.16
866,4.42,-4.68,-6.71, -0.06,-0.14,0.10
867,4.70,-4.93,-6.77, -0.18,0.08,0.08
868,4.60,-4.69,-6.75, -0.04,-0.01,0.02
869,4.13,-4.33,-6.39, -0.12,0.02,0.01
870,4.36,-4.43,-6.53, -0.16,-0.05,-0.01
871,4.70,-4.74,-6.80, -0.14,-0.03,0.02
872,4.68,-4.82,-6.71, -0.04,-0.00,0.06
873,4.57,-4.90,-6.75, -0.06,0.06,0.10
874,5.30,-5.70,-7.11, 0.03,0.02,0.15
875,4.41,-5.29,-6.74, -0.01,0.13,0.07
876,4.24,-5.01,-6.84, -0.14,0.10,-0.03
877,4.79,-5.43,-7.08, -0.22,-0.01,-0.10
878,5.95,-6.41,-7.73, -0.13,0.01,-0.03
879,5.82,-6.29,-7.81, -0.06,0.10,-0.06
880,5.55,-5.93,-7.72, -0.03,0.07,-0.04
881,5.94,-6.21,-7.89, -0.11,-0.02,-0.03
882,6.38,-6.36,-8.31, -0.16,-0.04,-0.07
883,6.87,-6.70,-8.83, -0.08,0.01,-0.09
884,6.80,-6.56,-8.91, 0.13,0.10,-0.03
885,6.66,-6.98,-8.69, 0.16,-0.03,0.00
886,6.00,-6.68,-8.75, -0.13,-0.02,-0.07
887,6.87,-6.94,-9.42, -0.30,-0.03,-0.19
888,8.21,-7.87,-9.94, 0.06,0.02,-0.21
889,8.58,-7.91,-9.86, 0.15,0.17,-0.28
890,7.40,-7.39,-10.14, -0.01,-0.03,-0.33
891,8.00,-8.30,-10.66, -0.54,-0.33,-0.35
892,9.78,-9.34,-11.50, -0.63,-0.20,-0.34
893,8.93,-8.36,-11.15, -0.03,-0.35,-0.22
894,7.11,-6.31,-9.23, -0.28,-0.23,-0.25
895,9.40,-8.61,-11.48, -0.19,-0.30,-0.17
896,9.12,-9.38,-11.82, 0.23,-0.44,0.06
897,8.22,-8.45,-11.07, 0.07,-0.29,0.14
898,6.70,-6.24,-9.23, -0.30,-0.58,0.36
899,3.55,-6.13,-11.85, -0.28,-0.66,0.26
900,6.03,-4.46,-9.35, -0.03,-0.15,0.22
901,4.55,-1.61,-7.54, 0.04,-0.01,-0.11
902,4.55,-3.63,-8.70, -0.06,-0.01,-0.34
903,4.33,-4.28,-8.74, -0.09,0.08,-0.38
904,3.09,-2.85,-5.48, 0.00,-0.04,-0.28
905,1.41,-0.97,-2.14, -0.71,-0.15,-0.20
906,2.57,-2.27,-4.37, -0.95,-0.19,0.03
907,4.10,-5.76,-7.59, -0.70,-0.13,0.37
908,3.17,-4.98,-5.15, 0.00,0.38,0.51
909,0.19,-0.05,-1.71, -0.21,0.18,0.52
910,2.71,-1.89,-5.26, -0.92,0.08,0.28
911,4.00,-6.97,-7.18, 0.38,-0.02,0.56
912,0.19,-1.79,-1.71, 0.42,0.03,0.54
913,0.89,-1.58,-1.67, 0.16,-0.37,0.46
914,1.91,-1.85,-3.12, -0.03,-0.30,0.72
915,3.12,-2.77,-3.19, 0.31,-0.25,0.61
916,2.19,-2.35,-4.84, 0.71,0.05,0.06
917,0.47,-1.00,-2.21, 0.67,0.11,-0.03
918,1.61,-1.03,-2.15, 0.53,-0.28,0.27
919,2.84,-1.38,-3.84, 0.33,-0.01,0.00
920,2.72,-0.73,-4.04, 0.35,0.43,-0.09
921,0.20,0.12,-1.92, 0.16,0.27,0.14
922,4.06,-7.29,-4.89, 0.08,-0.22,0.05
923,3.82,-3.62,-3.85, 0.08,0.02,0.38
924,3.68,-2.97,-2.82, 0.05,0.12,0.21
925,2.30,-2.59,-2.81, 0.00,-0.14,0.21
926,3.36,-3.51,-4.37, -0.20,-0.08,0.23
927,3.56,-3.64,-4.12, -0.07,-0.22,0.09
928,3.74,-4.23,-4.70, -0.29,-0.10,0.01
929,3.42,-4.72,-5.55, -0.10,-0.24,-0.07
930,3.79,-5.11,-6.24, -0.22,-0.07,-0.16
931,4.42,-4.49,-5.45, -0.22,-0.03,-0.27
932,4.24,-5.30,-6.34, -0.28,0.08,-0.33
933,3.35,-6.33,-7.40, -0.16,0.08,-0.33
934,3.46,-5.33,-7.04, -0.22,0.16,-0.22
935,3.97,-5.35,-6.78, -0.12,-0.08,-0.12
936,3.93,-5.44,-6.86, -0.09,-0.07,-0.08
937,3.84,-6.00,-7.14, 0.04,-0.08,-0.06
938,4.01,-4.78,-6.76, 0.15,-0.02,0.03
939,3.80,-3.27,-5.43, -0.04,-0.13,0.23
940,4.03,-4.12,-5.43, -0.30,-0.03,0.18
941,3.60,-4.07,-5.35, -0.43,-0.06,0.09
942,3.42,-4.93,-6.39, -0.47,-0.18,0.12
943,3.74,-4.99,-8.11, -0.39,-0.22,0.22
944,3.78,-4.77,-8.18, -0.19,-0.24,0.22
945,3.94,-4.44,-7.54, -0.25,-0.02,-0.00
946,3.77,-4.73,-7.50, -0.23,-0.05,-0.15
947,4.03,-5.38,-7.91, -0.16,0.02,-0.07
948,3.94,-4.82,-7.26, -0.10,0.01,-0.03
949,4.05,-5.11,-7.42, -0.16,0.05,-0.06
950,3.60,-4.93,-7.68, -0.15,0.01,-0.03
951,3.75,-5.45,-7.97, -0.02,-0.01,0.02
952,3.67,-4.93,-7.67, 0.07,-0.02,0.04
953,3.79,-4.54,-7.16, 0.07,-0.02,0.05
954,3.76,-4.70,-6.85, 0.02,-0.00,0.02
955,3.63,-4.71,-7.13, -0.05,0.03,-0.02
956,3.75,-4.89,-7.10, -0.01,0.01,0.00
957,3.81,-4.97,-6.91, 0.05,0.01,-0.01
958,3.85,-4.29,-6.49, -0.02,0.03,-0.05
959,3.69,-4.31,-6.55, -0.10,0.04,-0.08
960,3.81,-5.05,-7.13, -0.06,0.05,-0.06
961,3.85,-5.20,-6.94, 0.06,0.07,-0.02
962,3.44,-4.43,-6.05, 0.03,0.08,-0.03
963,3.42,-4.53,-5.75, -0.05,0.03,0.01
964,3.82,-4.54,-5.85, -0.06,-0.07,0.10
965,3.96,-4.45,-6.00, -0.07,-0.12,0.07
966,3.25,-4.03,-5.38, -0.09,-0.15,0.01
967,3.71,-4.46,-5.75, -0.09,-0.15,0.11
968,3.22,-3.78,-6.01, -0.06,-0.15,0.15
969,2.95,-3.41,-5.69, -0.12,-0.07,0.01
970,3.45,-4.08,-5.78, -0.09,0.01,-0.07
971,3.12,-4.10,-5.45, 0.07,0.02,0.00
972,2.54,-3.08,-4.61, 0.06,0.00,-0.06
973,3.12,-3.46,-4.83, 0.06,0.03,-0.11
974,3.09,-3.44,-4.18, 0.04,0.11,-0.16
975,2.23,-2.74,-3.82, -0.07,0.10,-0.15
976,1.83,-2.64,-3.33, -0.14,0.02,-0.18
977,2.56,-2.67,-4.30, -0.34,0.21,-0.46
978,2.49,-2.94,-4.96, -0.18,0.19,-0.54
979,2.87,-4.38,-6.07, 0.02,0.21,-0.31
980,2.00,-3.30,-4.23, 0.14,0.11,-0.26
981,2.83,-3.08,-4.51, -0.17,0.26,-0.27
982,4.23,-4.41,-6.54, 0.19,-0.02,0.11
983,3.70,-4.00,-5.75, 0.33,-0.00,0.14
984,3.54,-4.16,-4.30, 0.40,0.42,-0.11
985,3.35,-3.06,-3.03, 0.30,0.70,-0.24
986,2.02,-1.86,-1.63, 0.32,0.80,-0.21
987,1.54,-1.69,-1.24, 0.27,0.54,-0.25
988,2.03,-2.11,-2.29, -0.05,0.34,-0.31
989,3.10,-3.58,-3.38, 0.02,0.30,-0.12
990,1.68,-1.54,-1.30, -0.02,0.45,-0.19
991,0.68,-0.50,-2.04, -0.28,0.31,-0.31
992,0.70,0.32,-3.39, -0.41,0.31,-0.28
993,3.55,-3.02,-5.88, 0.30,0.30,-0.30
994,2.69,-2.13,-5.06, 0.52,0.40,-0.32
995,3.34,-1.82,-5.57, 0.22,0.05,-0.18
996,6.29,-4.09,-7.78, 0.19,-0.11,0.18
997,6.61,-6.21,-7.68, 0.30,-0.08,0.45
998,5.35,-6.16,-6.41, 0.49,0.11,0.83
999,5.03,-5.52,-6.69, 0.09,0.31,0.73
1000,5.70,-6.33,-8.20, -0.11,0.04,0.67
1001,7.69,-6.65,-9.28, -0.14,-0.06,0.86
1002,4.64,-6.03,-6.82, -0.16,-0.36,0.75
1003,5.32,-7.81,-8.38, -0.92,0.14,0.26
1004,8.28,-10.47,-10.88, -0.75,-0.06,0.41
1005,7.96,-10.64,-11.31, -0.56,0.22,0.47
1006,8.79,-10.69,-11.54, -0.43,0.40,0.17
1007,6.90,-9.24,-11.53, -0.32,0.21,-0.12
1008,7.84,-9.27,-11.36, -0.52,0.19,-0.08
1009,7.98,-10.30,-11.04, -0.28,-0.27,0.05
1010,9.00,-10.86,-10.73, -0.53,0.12,0.04
1011,8.39,-9.90,-10.72, -0.33,0.20,-0.00
1012,6.99,-8.09,-10.05, -0.24,0.20,-0.03
1013,6.35,-7.30,-9.57, -0.34,-0.02,0.01
1014,6.46,-7.91,-9.05, -0.41,-0.20,0.01
1015,7.41,-8.33,-8.92, -0.35,-0.18,-0.09
1016,7.03,-7.50,-8.45, -0.22,-0.10,-0.15
1017,5.92,-6.26,-7.82, -0.17,-0.13,-0.18
1018,5.94,-6.35,-7.43, -0.17,-0.17,-0.16
1019,5.86,-6.28,-7.23, -0.20,-0.18,-0.17
1020,5.82,-6.27,-7.06, -0.18,-0.13,-0.16
1021,5.76,-5.63,-6.86, -0.07,0.02,-0.15
1022,5.09,-4.78,-6.77, -0.02,0.05,-0.11
1023,5.24,-4.59,-6.69, -0.09,-0.07,-0.08
1024,5.42,-5.03,-6.91, -0.14,-0.17,-0.02
1025,5.71,-5.61,-6.90, -0.06,-0.10,0.03
1026,5.40,-5.32,-6.79, 0.00,0.01,0.03
1027,5.26,-4.79,-6.76, 0.02,0.02,0.02
1028,5.26,-4.56,-6.78, -0.03,-0.06,0.04
1029,4.77,-4.55,-6.61, -0.04,-0.09,0.08
1030,4.56,-4.76,-6.39, -0.09,-0.08,0.06
1031,4.76,-4.86,-6.74, -0.11,-0.05,0.07
1032,5.14,-5.09,-6.43, -0.13,-0.12,0.18
1033,3.81,-4.25,-6.21, -0.13,-0.12,0.10
1034,4.02,-4.50,-6.26, -0.19,-0.06,-0.02
1035,4.98,-5.17,-6.81, -0.12,0.04,-0.00
1036,5.08,-5.27,-6.70, 0.03,0.00,0.13
1037,3.86,-3.99,-6.39, 0.06,0.12,0.01
1038,4.61,-4.17,-6.96, -0.01,-0.07,-0.04
1039,4.48,-4.91,-7.16, 0.00,-0.28,0.01
1040,4.96,-5.88,-7.30, -0.07,-0.06,0.01
1041,5.09,-5.60,-7.92, -0.04,0.09,-0.04
1042,4.80,-4.79,-8.53, -0.11,0.04,-0.10
1043,5.49,-5.52,-8.72, -0.15,-0.07,-0.10
1044,6.46,-6.66,-8.70, -0.06,0.02,-0.05
1045,5.94,-6.11,-8.45, 0.01,-0.01,-0.03
1046,4.84,-5.58,-7.98, 0.03,-0.06,-0.05
1047,4.80,-5.51,-7.53, -0.05,-0.10,-0.13
1048,5.13,-5.68,-7.55, -0.11,-0.13,-0.20
1049,5.14,-5.76,-7.47, -0.05,-0.07,-0.19
1050,5.16,-5.59,-7.41, -0.04,-0.08,-0.15
1051,4.59,-5.43,-7.28, -0.00,-0.10,-0.16
1052,4.23,-5.13,-7.46, -0.09,-0.12,-0.24
1053,7.01,-4.57,-4.89, -0.32,-0.13,-0.15
1054,3.97,-4.37,-8.44, -0.11,-0.36,-0.23
1055,4.43,-3.83,-6.51, -0.06,-0.28,-0.43
1056,4.75,-4.37,-6.66, -0.05,-0.33,-0.47
1057,4.95,-4.50,-6.60, 0.01,-0.33,-0.53
1058,5.23,-4.81,-6.79, 0.06,-0.23,-0.49
1059,4.55,-4.36,-6.85, 0.13,-0.17,-0.45
1060,4.72,-3.94,-6.96, 0.08,-0.14,-0.38
1061,5.07,-4.47,-7.00, 0.10,-0.18,-0.29
1062,4.97,-4.89,-6.90, 0.17,-0.12,-0.25
1063,5.04,-5.00,-7.12, 0.14,0.04,-0.26
1064,5.12,-4.67,-7.14, 0.16,0.05,-0.28
1065,4.97,-4.29,-7.15, 0.16,0.02,-0.27
1066,5.12,-4.24,-6.93, 0.17,-0.02,-0.20
1067,5.24,-4.58,-6.82, 0.14,-0.09,-0.19
1068,5.23,-4.68,-6.90, 0.15,-0.03,-0.17
1069,5.02,-4.40,-6.89, 0.16,-0.04,-0.17
1070,4.94,-4.21,-6.90, 0.10,-0.02,-0.12
1071,5.12,-4.28,-7.11, 0.08,-0.08,-0.07
1072,5.84,-5.14,-7.25, 0.05,-0.13,0.04
1073,6.32,-5.73,-7.32, 0.12,-0.09,0.17
1074,5.49,-5.17,-6.87, 0.18,-0.08,0.18
1075,4.62,-4.21,-6.53, 0.05,-0.06,0.23
1076,4.75,-3.97,-7.37, -0.04,-0.16,0.31
1077,4.48,-4.15,-6.36, -0.21,-0.35,0.37
1078,4.83,-5.20,-6.27, -0.31,-0.22,0.37
1079,4.25,-5.15,-6.05, -0.21,0.01,0.35
1080,4.33,-4.63,-6.15, -0.27,0.30,0.08
1081,4.13,-3.71,-6.70, -0.31,0.41,-0.19
1082,4.63,-3.76,-7.18, -0.35,0.31,-0.28
1083,4.89,-4.25,-7.39, -0.25,0.11,-0.18
1084,4.40,-4.11,-7.06, -0.30,-0.07,-0.13
1085,4.99,-4.03,-6.50, -0.25,-0.06,-0.07
1086,4.38,-3.88,-6.78, -0.01,0.04,-0.14
1087,4.05,-3.41,-6.74, 0.05,0.10,-0.23
1088,3.61,-2.82,-6.28, -0.09,-0.12,-0.28
1089,4.66,-4.56,-6.42, -0.06,-0.33,-0.20
1090,4.55,-4.03,-6.21, 0.07,-0.09,-0.12
1091,3.32,-3.13,-5.37, 0.16,-0.05,-0.22
1092,3.68,-2.94,-5.31, 0.03,-0.03,-0.24
1093,3.01,-2.74,-5.47, -0.30,-0.39,-0.17
1094,3.18,-3.14,-4.90, -0.65,-0.83,0.05
1095,3.65,-4.24,-5.27, -0.55,-0.69,0.10
1096,4.86,-4.70,-5.29, -0.19,-0.13,-0.06
1097,4.80,-4.71,-5.79, 0.06,0.30,-0.26
1098,4.05,-3.98,-5.60, 0.02,0.26,-0.30
1099,3.76,-5.06,-6.10, -0.07,0.02,-0.16
1100,3.83,-5.68,-6.09, 0.10,0.04,-0.15
1101,3.56,-5.08,-6.23, 0.25,0.07,-0.20
1102,3.57,-5.21,-6.25, 0.33,-0.15,-0.25
1103,3.47,-5.57,-6.73, 0.16,-0.08,-0.21
1104,3.27,-5.55,-6.47, 0.10,-0.10,-0.25
1105,3.27,-5.55,-6.24, 0.17,-0.13,-0.33
1106,3.39,-5.46,-6.32, 0.20,-0.11,-0.39
1107,3.56,-5.37,-6.77, 0.25,-0.16,-0.44
1108,3.46,-5.09,-6.63, 0.31,-0.21,-0.50
1109,3.27,-4.91,-6.48, 0.34,-0.31,-0.57
1110,3.09,-4.95,-6.21, 0.29,-0.38,-0.67
1111,3.71,-4.99,-6.89, 0.24,-0.32,-0.76
1112,3.66,-4.60,-7.13, 0.37,-0.31,-0.84
1113,3.88,-4.86,-7.86, 0.42,-0.27,-0.92
1114,3.71,-5.13,-7.07, 0.49,-0.34,-0.99
1115,3.45,-4.74,-6.56, 0.46,-0.29,-1.00
1116,3.76,-4.75,-6.51, 0.52,-0.35,-1.01
1117,3.69,-4.37,-6.61, 0.57,-0.37,-0.94
1118,3.53,-3.90,-6.59, 0.50,-0.52,-0.94
1119,3.68,-4.70,-7.24, 0.45,-0.65,-1.01
1120,4.61,-6.00,-8.08, 0.53,-0.65,-0.96
1121,4.64,-6.09,-8.06, 0.73,-0.52,-0.87
1122,3.83,-5.07,-6.74, 0.93,-0.48,-0.84
1123,3.47,-4.36,-5.85, 0.88,-0.58,-0.78
1124,3.66,-4.21,-6.17, 0.74,-0.75,-0.70
1125,4.33,-4.61,-6.76, 0.66,-0.79,-0.70
1126,4.60,-5.03,-7.17, 0.78,-0.72,-0.71
1127,3.91,-4.11,-6.45, 0.87,-0.79,-0.73
1128,3.47,-3.38,-5.69, 0.70,-0.88,-0.76
1129,4.14,-3.63,-6.00, 0.62,-0.88,-0.86
1130,4.76,-4.09,-6.07, 0.67,-0.79,-0.97
1131,4.62,-4.02,-6.14, 0.70,-0.86,-1.00
1132,4.76,-4.56,-6.05, 0.72,-0.79,-0.92
1133,4.93,-4.89,-6.16, 0.75,-0.77,-0.86
1134,4.44,-4.84,-5.88, 0.60,-0.75,-0.92
1135,4.70,-5.10,-6.30, 0.47,-0.63,-0.94
1136,4.74,-5.21,-7.14, 0.55,-0.61,-0.87
1137,4.47,-5.22,-7.61, 0.64,-0.63,-0.80
1138,4.43,-5.34,-7.78, 0.69,-0.74,-0.74
1139,3.91,-4.86,-7.34, 0.68,-0.83,-0.77
1140,3.55,-4.07,-7.65, 0.60,-0.89,-0.82
1141,3.97,-4.30,-8.33, 0.44,-0.93,-0.97
1142,4.61,-4.99,-8.93, 0.46,-0.79,-1.02
1143,5.02,-5.53,-8.62, 0.70,-0.69,-0.98
1144,3.51,-4.40,-7.16, 0.87,-0.69,-0.92
1145,2.42,-3.77,-5.96, 0.81,-0.81,-0.90
1146,2.53,-4.06,-5.64, 0.59,-0.88,-0.92
1147,2.87,-4.65,-6.04, 0.51,-0.96,-0.92
1148,3.45,-5.30,-6.82, 0.37,-0.89,-0.94
1149,3.75,-5.27,-7.47, 0.40,-0.82,-0.93
1150,3.87,-5.09,-7.47, 0.49,-0.74,-0.92
1151,3.55,-4.96,-6.73, 0.58,-0.65,-0.99
1152,3.29,-4.79,-6.13, 0.53,-0.49,-1.05
1153,3.37,-4.83,-5.98, 0.49,-0.47,-1.07
1154,3.94,-5.24,-6.22, 0.46,-0.36,-1.02
1155,3.97,-4.69,-5.91, 0.46,-0.28,-1.01
1156,3.94,-4.61,-5.89, 0.40,-0.24,-1.00
1157,4.21,-5.27,-6.40, 0.33,-0.24,-0.92
1158,4.25,-5.51,-6.66, 0.32,-0.24,-0.79
1159,4.59,-5.44,-7.42, 0.26,-0.24,-0.69
1160,4.66,-5.56,-7.43, 0.28,-0.20,-0.66
1161,3.73,-4.74,-6.89, 0.17,-0.19,-0.70
1162,3.59,-4.83,-7.15, -0.06,-0.28,-0.80
1163,4.14,-5.69,-8.38, -0.12,-0.29,-0.75
1164,4.88,-6.52,-9.13, 0.10,-0.36,-0.56
1165,4.56,-6.39,-8.16, 0.40,-0.28,-0.38
1166,3.37,-4.81,-6.16, 0.74,-0.13,-0.34
1167,2.15,-3.11,-5.00, 0.57,-0.17,-0.53
1168,2.66,-3.71,-5.52, 0.25,-0.19,-0.67
1169,3.64,-4.35,-6.55, 0.16,-0.27,-0.67
1170,3.65,-4.81,-6.70, 0.32,-0.33,-0.75
1171,3.59,-4.80,-6.51, 0.41,-0.17,-0.84
1172,2.94,-4.16,-6.42, 0.44,-0.40,-0.85
1173,3.65,-4.81,-6.63, 0.33,-0.43,-0.87
1174,3.95,-4.90,-6.56, 0.43,-0.55,-0.96
1175,3.66,-4.81,-5.69, 0.48,-0.47,-1.09
1176,2.84,-4.01,-5.36, 0.38,-0.50,-1.18
1177,3.55,-4.44,-6.43, 0.26,-0.58,-1.11
1178,3.90,-4.58,-6.84, 0.35,-0.73,-0.95
1179,3.91,-4.43,-7.05, 0.44,-0.84,-0.97
1180,4.20,-4.67,-7.30, 0.46,-0.87,-1.01
1181,4.47,-4.89,-7.78, 0.54,-0.86,-1.02
1182,4.33,-4.71,-7.39, 0.65,-0.85,-1.06
1183,4.23,-4.38,-7.08, 0.64,-0.75,-1.10
1184,3.98,-3.91,-6.98, 0.50,-0.65,-1.22
1185,4.34,-4.37,-7.75, 0.39,-0.65,-1.20
1186,4.97,-5.09,-8.42, 0.46,-0.74,-1.08
1187,4.75,-5.60,-8.17, 0.72,-0.71,-0.98
1188,3.83,-5.07,-7.06, 0.92,-0.61,-1.01
1189,2.70,-3.91,-6.32, 0.83,-0.65,-1.05
1190,3.27,-4.07,-6.62, 0.72,-0.81,-0.98
1191,4.45,-6.13,-7.40, 0.83,-0.73,-0.99
1192,3.71,-3.65,-6.96, 1.03,-0.53,-1.22
1193,3.27,-3.95,-6.00, 0.89,-0.57,-1.47
1194,4.46,-5.00,-6.80, 0.66,-0.41,-1.43
1195,4.09,-4.82,-6.02, 0.86,-0.58,-1.33
1196,4.30,-4.53,-5.63, 0.73,-0.40,-1.20
1197,4.20,-4.33,-5.67, 0.77,-0.61,-1.08
1198,4.50,-4.75,-5.76, 0.71,-0.56,-0.99
1199,4.69,-4.98,-5.94, 0.80,-0.54,-0.98
1200,4.63,-4.29,-5.94, 0.71,-0.39,-0.91
1201,4.08,-3.40,-5.56, 0.75,-0.58,-0.73
1202,4.11,-3.53,-6.67, 0.59,-0.60,-0.55
1203,3.40,-3.50,-6.08, 0.51,-0.77,-0.34
1204,2.90,-3.62,-5.94, 0.27,-0.91,-0.39
1205,4.28,-4.18,-6.58, -0.15,-0.95,-0.73
1206,5.45,-4.99,-7.19, -0.31,-0.91,-0.84
1207,6.45,-4.90,-8.35, -0.22,-0.59,-0.98
1208,4.46,-4.52,-5.63, -0.11,-0.46,-0.95
1209,5.10,-4.26,-6.16, -0.22,-0.24,-0.98
1210,5.95,-3.87,-6.45, -0.07,-0.34,-0.74
1211,4.92,-4.07,-5.67, 0.20,-0.65,-0.49
1212,6.28,-4.01,-7.30, 0.15,-0.23,-0.30
1213,4.97,-4.58,-7.52, 0.55,-0.33,-0.05
1214,5.59,-4.40,-4.99, 0.24,-0.21,0.10
1215,4.78,-5.90,-8.66, 0.27,-0.31,0.33
1216,3.60,-4.93,-8.49, 0.59,0.01,0.29
1217,1.63,-5.77,-9.80, 1.04,-0.12,0.08
1218,3.13,-4.98,-6.19, 0.68,0.11,0.03
1219,3.42,-4.66,-5.70, 0.70,0.24,-0.07
1220,3.44,-3.84,-7.09, 0.31,0.44,-0.15
1221,3.79,-3.89,-8.05, 0.24,0.04,0.02
1222,3.70,-1.81,-6.68, -0.20,-0.20,-0.02
1223,5.54,-4.92,-8.63, -0.27,-0.29,0.10
1224,5.90,-5.96,-9.22, 0.29,-0.30,0.43
1225,3.13,-4.15,-7.47, 0.42,-0.37,0.49
1226,3.26,-3.52,-7.62, 0.09,-0.16,0.45
1227,3.21,-2.82,-7.79, -0.05,-0.32,0.27
1228,4.66,-3.83,-9.07, -0.03,-0.30,0.25
1229,4.60,-4.96,-9.23, 0.07,-0.30,0.29
1230,2.95,-4.88,-9.17, 0.10,-0.35,0.13
1231,3.41,-5.58,-9.50, -0.14,0.00,-0.13
1232,7.43,-6.92,-10.43, 0.11,-0.15,0.02
1233,5.37,-6.06,-9.38, 0.38,-0.16,0.26
1234,3.40,-4.67,-7.03, 0.39,-0.20,0.06
1235,4.72,-4.11,-6.77, -0.07,0.22,-0.03
1236,3.85,-3.79,-6.61, 0.15,-0.07,-0.07
1237,0.95,-3.48,-6.29, 0.15,0.05,-0.33
1238,3.06,-5.04,-5.41, 0.12,0.18,-0.54
1239,3.75,-5.18,-6.66, -0.07,0.23,-0.52
1240,4.35,-4.57,-6.90, -0.17,0.11,-0.32
1241,4.66,-5.20,-6.91, -0.27,0.03,-0.13
1242,4.40,-4.88,-6.65, -0.19,-0.05,0.04
1243,3.12,-4.28,-6.20, -0.32,-0.13,0.12
1244,2.83,-4.91,-6.66, -0.51,-0.17,0.13
1245,5.66,-5.90,-6.96, -0.75,-0.27,0.26
1246,3.83,-14.77,-12.65, -0.28,-0.44,-0.63
1247,2.87,-5.18,-7.12, -0.39,0.07,-0.03
1248,4.40,-4.79,-7.79, -0.22,0.08,0.02
1249,3.49,-4.10,-5.38, -0.06,0.19,0.04
1250,1.24,-2.74,-6.59, -0.24,0.50,-0.65
1251,6.22,-6.81,-6.31, -0.22,-0.12,-0.37
1252,6.55,-2.50,-4.93, -0.05,-0.34,0.10
1253,5.37,-5.81,-7.32, -0.13,0.06,-0.00
1254,4.67,-5.09,-7.28, -0.12,0.02,-0.01
1255,4.46,-4.80,-6.79, -0.08,-0.01,0.00
1256,4.30,-4.88,-6.65, -0.07,-0.00,0.00
1257,4.47,-5.03,-6.55, -0.06,0.00,0.00
1258,4.47,-5.05,-6.36, -0.06,-0.01,0.00
1259,4.54,-4.98,-6.55, -0.07,-0.01,0.00
1260,4.44,-4.76,-6.73, -0.07,-0.01,0.00
1261,4.37,-4.79,-6.79, -0.07,-0.01,0.00
1262,4.48,-4.98,-6.54, -0.06,0.00,0.00
1263,4.45,-5.01,-6.51, -0.06,-0.00,0.00
1264,4.56,-5.01,-6.50, -0.07,-0.01,0.00
1265,4.50,-4.87,-6.69, -0.07,-0.01,0.00
1266,4.39,-4.80,-6.69, -0.07,-0.01,0.00
1267,4.43,-4.81,-6.71, -0.06,-0.00,0.01
1268,4.51,-4.98,-6.60, -0.06,-0.00,0.00
1269,4.51,-5.02,-6.43, -0.06,-0.00,0.00
1270,4.46,-4.87,-6.65, -0.07,-0.01,0.00
1271,4.48,-4.87,-6.71, -0.07,-0.01,0.00
1272,4.37,-4.87,-6.70, -0.06,-0.01,0.00
1273,4.39,-4.96,-6.66, -0.06,-0.01,0.00
1274,4.52,-4.98,-6.49, -0.07,-0.00,0.00
1275,4.52,-4.91,-6.50, -0.07,-0.00,0.00
1276,3.30,-4.70,-8.78, 0.12,-0.16,-0.21
1277,3.04,-4.56,-7.72, 0.37,-0.46,-0.71
1278,2.90,-4.56,-7.45, 0.60,-0.72,-1.07
1279,3.55,-4.91,-7.08, 0.68,-0.92,-1.37
1280,3.07,-3.68,-9.08, 0.96,-1.12,-1.68
1281,3.42,-4.36,-7.91, 1.07,-1.29,-1.93
1282,4.08,-4.19,-7.28, 1.16,-1.48,-2.12
1283,4.02,-4.47,-7.08, 1.28,-1.61,-2.35
1284,4.08,-3.84,-7.82, 1.47,-1.80,-2.62
1285,3.73,-3.73,-8.03, 1.67,-1.97,-2.91
1286,3.88,-3.55,-7.74, 1.80,-2.17,-3.19
1287,4.36,-3.71,-7.61, 1.96,-2.37,-3.48
1288,5.46,-3.34,-7.25, 2.03,-2.45,-3.61
1289,5.22,-3.41,-7.12, 2.09,-2.48,-3.66
1290,5.26,-3.18,-7.23, 2.08,-2.49,-3.67
1291,5.42,-3.05,-7.23, 2.07,-2.50,-3.68
1292,4.74,-2.64,-7.87, 2.11,-2.59,-3.74
1293,4.49,-2.30,-8.78, 2.21,-2.67,-3.93
1294,3.80,-2.96,-8.46, 2.49,-2.79,-4.19
1295,3.88,-2.24,-8.41, 2.32,-2.90,-4.29
1296,8.60,-5.34,-6.46, 2.36,-2.71,-4.06
1297,2.88,-0.61,-8.30, 2.39,-2.84,-4.16
1298,6.45,-5.27,-6.56, 2.20,-3.09,-4.26
1299,8.27,-2.53,-6.17, 2.12,-2.69,-3.84
1300,7.34,-3.06,-6.70, 1.99,-2.40,-3.60
1301,5.02,-2.99,-7.75, 1.99,-2.14,-3.35
1302,3.48,-2.99,-8.22, 1.86,-2.04,-3.19
1303,1.15,-4.04,-6.74, 1.81,-2.20,-3.08
1304,4.29,-3.02,-8.24, 1.79,-2.31,-3.40
1305,6.09,-3.76,-8.03, 1.89,-2.20,-3.39
1306,3.23,-2.67,-7.50, 1.96,-2.13,-3.24
1307,4.73,-3.73,-7.79, 1.76,-2.11,-3.13
1308,4.32,-3.18,-8.17, 1.81,-2.21,-3.21
1309,3.60,-2.68,-8.45, 1.92,-2.33,-3.42
1310,4.50,-2.42,-8.29, 2.01,-2.45,-3.64
1311,5.11,-2.83,-7.87, 2.10,-2.50,-3.72
1312,5.49,-3.09,-7.47, 2.07,-2.47,-3.66
1313,5.48,-3.31,-7.12, 2.00,-2.38,-3.52
1314,5.00,-3.27,-7.28, 1.96,-2.31,-3.38
1315,4.92,-3.36,-7.23, 1.91,-2.26,-3.35
1316,5.47,-3.58,-6.12, 1.79,-2.22,-3.25
1317,6.75,-4.73,-6.34, 1.64,-2.16,-3.08
1318,6.70,-3.64,-6.31, 1.56,-2.02,-2.95
1319,6.76,-4.71,-6.21, 1.52,-1.98,-2.79
1320,6.04,-4.51,-5.77, 1.43,-1.89,-2.68
1321,6.34,-4.68,-5.79, 1.38,-1.81,-2.60
1322,5.33,-3.94,-6.63, 1.41,-1.74,-2.60
1323,5.38,-4.57,-6.32, 1.43,-1.81,-2.66
1324,5.37,-4.47,-6.34, 1.47,-1.79,-2.70
1325,3.89,-4.24,-7.46, 1.52,-1.73,-2.73
1326,2.64,-3.83,-8.42, 1.60,-1.85,-2.85
1327,2.74,-3.88,-8.30, 1.70,-2.11,-3.10
1328,4.16,-4.15,-7.27, 1.77,-2.18,-3.25
1329,3.90,-3.82,-7.81, 1.83,-2.14,-3.28
1330,3.23,-3.64,-8.40, 1.89,-2.05,-3.30
1331,2.36,-3.96,-8.08, 1.86,-2.14,-3.23
1332,5.18,-4.07,-6.74, 1.77,-2.18,-3.21
1333,5.41,-3.75,-6.70, 1.75,-2.16,-3.16
1334,5.36,-3.35,-6.78, 1.72,-2.02,-3.05
1335,4.82,-4.23,-6.94, 1.67,-1.99,-2.98
1336,4.99,-3.26,-7.51, 1.65,-2.11,-3.03
1337,6.00,-3.85,-7.08, 1.65,-2.09,-3.02
1338,5.25,-3.90,-6.86, 1.64,-1.83,-2.90
1339,4.76,-4.27,-6.87, 1.57,-1.74,-2.76
1340,4.82,-4.52,-6.68, 1.51,-1.75,-2.60
1341,5.33,-4.28,-6.46, 1.38,-1.68,-2.49
1342,5.52,-4.29,-6.54, 1.31,-1.61,-2.35
1343,5.45,-4.28,-6.37, 1.22,-1.49,-2.20
1344,5.54,-4.33,-6.44, 1.12,-1.39,-2.04
1345,5.41,-4.32,-6.56, 1.03,-1.29,-1.89
1346,5.38,-4.48,-6.42, 0.95,-1.18,-1.73
1347,5.27,-4.59,-6.39, 0.84,-1.06,-1.55
1348,5.27,-4.62,-6.34, 0.75,-0.95,-1.39
1349,5.32,-4.67,-6.37, 0.65,-0.84,-1.23
1350,5.21,-4.70,-6.31, 0.56,-0.72,-1.06
1351,5.25,-4.73,-6.22, 0.46,-0.62,-0.90
1352,5.20,-4.78,-6.31, 0.37,-0.52,-0.75
1353,5.13,-4.83,-6.28, 0.29,-0.41,-0.59
1354,5.13,-4.84,-6.31, 0.20,-0.30,-0.45
1355,5.06,-4.80,-6.28, 0.12,-0.21,-0.31
1356,5.13,-4.84,-6.33, 0.03,-0.13,-0.17
1357,4.97,-4.88,-6.31, -0.04,-0.04,-0.04
1358,4.47,-4.78,-6.78, -0.06,-0.01,0.01
1359,4.45,-4.75,-6.63, -0.06,-0.00,0.00
1360,4.53,-4.72,-6.69, -0.07,-0.01,0.00
1361,4.50,-4.75,-6.72, -0.07,-0.01,0.00
1362,4.47,-4.87,-6.68, -0.07,-0.01,0.00
1363,4.36,-4.79,-6.69, -0.07,-0.01,0.00
1364,4.41,-4.79,-6.69, -0.07,-0.00,0.00
1365,4.54,-4.88,-6.69, -0.07,-0.00,0.00
1366,4.52,-4.73,-6.65, -0.07,-0.01,0.00
1367,4.46,-4.77,-6.78, -0.07,-0.01,0.00
1368,4.43,-4.83,-6.78, -0.07,-0.01,0.00
1369,4.41,-4.83,-6.72, -0.07,-0.00,0.00
1370,4.44,-4.76,-6.61, -0.07,-0.00,0.00
1371,4.53,-4.74,-6.72, -0.07,-0.01,0.00
1372,4.46,-4.76,-6.73, -0.06,-0.01,0.00
1373,4.39,-4.85,-6.66, -0.07,-0.01,0.00
1374,4.38,-4.78,-6.70, -0.07,-0.01,0.00
1375,4.47,-4.77,-6.63, -0.07,-0.01,0.00
1376,4.52,-4.79,-6.64, -0.07,-0.01,0.00
1377,4.44,-4.79,-6.59, -0.07,-0.01,0.00
1378,4.44,-4.75,-6.78, -0.07,-0.01,0.00
1379,4.38,-4.74,-6.65, -0.07,-0.01,0.00
1380,4.46,-4.82,-6.79, -0.06,-0.00,0.01
1381,4.57,-4.84,-6.66, -0.07,-0.00,0.01
1382,4.52,-4.77,-6.65, -0.07,-0.00,0.00
1383,4.43,-4.73,-6.64, -0.07,-0.01,0.01
1384,4.36,-4.80,-6.74, -0.07,-0.01,0.00
1385,4.40,-4.86,-6.73, -0.07,-0.01,0.00
1386,4.54,-4.77,-6.64, -0.07,-0.00,0.00
1387,4.54,-4.71,-6.64, -0.07,-0.01,0.00
1388,4.49,-4.73,-6.59, -0.07,-0.01,0.01
1389,4.40,-4.90,-6.72, -0.07,-0.01,0.01
1390,4.39,-4.81,-6.72, -0.07,-0.01,0.01
1391,4.48,-4.75,-6.62, -0.06,-0.00,0.00
1392,4.52,-4.73,-6.62, -0.06,-0.01,0.00
1393,4.54,-4.81,-6.71, -0.07,-0.01,0.00
1394,4.39,-4.79,-6.71, -0.07,-0.01,0.01
1395,4.35,-4.80,-6.81, -0.07,-0.01,0.00
1396,4.44,-4.78,-6.73, -0.06,-0.00,0.00
1397,4.54,-4.82,-6.70, -0.06,-0.01,0.00
1398,4.50,-4.75,-6.66, -0.07,-0.01,0.00
1399,4.45,-4.81,-6.81, -0.07,-0.01,0.00
1400,4.49,-4.83,-6.65, -0.06,-0.00,0.00
1401,4.44,-4.78,-6.65, -0.07,-0.00,0.00
1402,4.52,-4.77,-6.62, -0.07,-0.00,0.00
1403,4.46,-4.80,-6.78, -0.07,-0.01,0.01
1404,4.45,-4.87,-6.71, -0.06,-0.01,0.00
1405,4.52,-4.81,-6.72, -0.07,-0.00,0.01
1406,4.51,-4.76,-6.69, -0.07,-0.00,0.00
1407,4.53,-4.72,-6.67, -0.07,-0.01,0.01
1408,4.52,-4.79,-6.74, -0.06,-0.01,0.00
1409,4.42,-4.79,-6.67, -0.07,-0.00,0.01
1410,4.42,-4.73,-6.71, -0.06,-0.01,0.00
1411,4.44,-4.70,-6.73, -0.06,-0.01,0.00
1412,4.47,-4.80,-6.63, -0.06,-0.00,0.00
1413,4.48,-4.81,-6.67, -0.07,-0.01,0.01
1414,4.41,-4.71,-6.79, -0.07,-0.01,0.00
1415,4.37,-4.75,-6.73, -0.06,-0.01,0.00
1416,4.48,-4.82,-6.69, -0.06,-0.00,0.00
1417,4.55,-4.85,-6.63, -0.07,-0.00,0.00
1418,4.48,-4.76,-6.74, -0.07,-0.01,0.00
1419,4.39,-4.73,-6.68, -0.06,-0.01,0.00
1420,4.41,-4.87,-6.68, -0.06,-0.01,0.00
1421,4.43,-4.81,-6.65, -0.07,-0.01,0.00
1422,4.53,-4.76,-6.72, -0.07,-0.01,0.00
1423,4.49,-4.80,-6.66, -0.07,-0.00,0.00
1424,4.43,-4.83,-6.69, -0.07,-0.01,0.00
1425,4.41,-4.80,-6.64, -0.07,-0.01,0.00
1426,4.42,-4.71,-6.68, -0.06,-0.00,0.00
1427,4.48,-4.83,-6.68, -0.06,-0.00,0.00
1428,4.47,-4.81,-6.70, -0.07,-0.01,0.01
1429,4.51,-4.75,-6.73, -0.07,-0.01,0.00
1430,4.46,-4.79,-6.78, -0.07,-0.01,0.00
1431,4.39,-4.85,-6.73, -0.07,-0.00,0.00
1432,4.51,-4.82,-6.69, -0.07,-0.00,0.00
1433,4.56,-4.72,-6.76, -0.07,-0.01,0.00
1434,4.54,-4.87,-6.80, -0.06,-0.01,0.00
1435,4.45,-4.79,-6.68, -0.07,-0.01,0.00
1436,4.48,-4.77,-6.72, -0.07,-0.01,0.00
1437,4.43,-4.71,-6.77, -0.06,-0.01,0.00
1438,4.42,-4.80,-6.65, -0.07,-0.01,0.00
1439,4.49,-4.83,-6.71, -0.07,-0.01,0.00
1440,4.45,-4.75,-6.68, -0.07,-0.01,0.00
1441,4.48,-4.79,-6.77, -0.07,-0.01,0.00
1442,4.47,-4.79,-6.76, -0.06,-0.00,0.00
1443,4.42,-4.80,-6.70, -0.07,-0.00,0.00
1444,4.56,-4.80,-6.69, -0.00,-0.06,-0.02
1445,4.41,-4.75,-6.83, -0.03,0.20,0.01
1446,4.57,-4.87,-6.62, -0.00,0.13,-0.00
1447,4.41,-4.83,-6.64, -0.12,0.13,0.00
1448,4.41,-4.88,-6.26, -0.04,-0.25,-0.09
1449,4.97,-4.39,-6.72, 0.35,-0.41,0.86
1450,4.20,-4.97,-6.81, 0.07,-0.16,0.00
1451,4.18,-4.99,-6.44, -0.08,0.01,0.00
1452,4.28,-5.00,-6.50, -0.18,0.27,0.00
1453,4.08,-4.85,-6.23, -0.29,0.33,-0.01
1454,4.06,-3.15,-8.71, 0.48,-0.19,0.46
1455,3.90,-5.36,-6.89, 0.55,-0.99,0.00
1456,6.72,-3.01,-4.35, 0.20,-0.77,3.17
1457,-1.88,-15.10,-12.94, 0.04,-0.22,1.64
1458,2.54,-6.73,-6.92, -0.16,0.78,-0.24
1459,4.41,-4.97,-5.66, -0.16,0.55,0.08
1460,3.29,-5.65,-6.15, 0.19,-0.04,0.41
1461,3.80,-6.01,-6.73, 0.10,-0.12,0.28
1462,3.59,-5.89,-6.28, -0.01,0.03,1.15
1463,3.45,-5.86,-6.29, -0.16,0.50,-0.33
1464,4.01,-7.28,-5.23, -0.04,0.42,0.60
1465,3.21,-5.26,-4.23, -0.37,0.19,0.22
1466,2.80,-5.99,-6.50, 0.10,-0.12,0.20
1467,3.07,-5.92,-6.52, -0.16,0.27,0.06
1468,2.98,-8.24,-5.97, 0.20,0.46,0.18
1469,3.38,-6.46,-6.39, -0.08,0.19,0.13
1470,3.25,-6.19,-6.50, 0.06,-0.13,0.21
1471,2.77,-5.91,-6.20, -0.16,0.10,0.11
1472,3.38,-6.19,-6.43, -0.04,-0.05,0.03
1473,3.29,-6.08,-6.22, -0.23,0.37,-0.05
1474,3.52,-6.20,-6.27, -0.05,0.12,-0.03
1475,3.45,-6.05,-6.25, -0.10,-0.08,0.06
1476,3.51,-5.97,-6.07, -0.01,-0.34,0.11
1477,3.15,-6.00,-6.02, -0.06,0.01,0.01
1478,3.50,-6.42,-6.50, -0.06,-0.01,0.00
1479,3.25,-6.08,-6.23, 0.09,-0.31,0.03
1480,3.32,-6.04,-6.20, -0.10,-0.13,0.04
1481,3.45,-6.30,-6.49, -0.43,0.24,0.02
1482,3.90,-6.06,-6.14, -0.65,0.73,0.03
1483,4.43,-6.36,-5.36, -0.34,0.48,0.26
1484,4.47,-6.20,-5.74, -0.04,0.10,0.52
1485,3.19,-5.64,-6.69, -0.19,0.34,0.60
1486,2.60,-4.97,-5.90, -0.34,0.38,0.50
1487,1.89,-6.38,-8.95, -1.00,1.21,0.25
1488,3.03,-5.34,-5.86, -1.04,1.39,-0.02
1489,4.67,-6.17,-5.64, -0.83,0.99,0.10
1490,4.94,-6.06,-5.43, -0.20,0.22,0.38
1491,2.58,-5.20,-7.24, 0.07,-0.22,0.40
1492,2.65,-5.31,-7.11, -0.56,0.77,0.08
1493,4.37,-6.26,-7.00, -0.46,0.60,0.06
1494,3.75,-5.79,-6.63, -0.06,-0.08,0.00
1495,3.96,-5.88,-6.83, 0.72,-1.01,0.02
1496,3.63,-5.62,-6.40, 0.23,-0.49,0.01
1497,4.16,-6.27,-7.12, -0.26,0.27,0.01
1498,3.66,-5.72,-6.40, 0.34,-0.21,-0.05
1499,9.57,-1.30,-5.50, 0.26,0.36,2.34
1500,5.17,-5.56,-6.81, 0.54,0.26,-0.79
1501,2.77,-7.44,-6.22, 0.60,0.61,-0.01
1502,3.87,-5.53,-6.74, 0.64,0.60,1.34
1503,4.42,-6.18,-4.91, 0.71,0.20,-0.16
1504,4.01,-6.86,-7.08, 0.45,0.45,0.91
1505,3.93,-6.83,-5.81, 0.52,0.52,0.14
1506,3.91,-5.82,-5.09, 0.24,0.78,0.26
1507,5.36,-5.99,-6.97, -0.15,-0.02,0.34
1508,4.15,-6.57,-4.87, 0.27,0.38,-0.45
1509,3.79,-7.70,-5.60, 0.11,0.49,0.36
1510,4.00,-7.00,-4.99, -0.03,0.46,0.44
1511,4.12,-6.56,-5.07, 0.24,0.36,0.06
1512,2.84,-7.64,-4.84, 0.46,0.22,-0.42
1513,3.40,-8.12,-4.98, 0.64,-0.01,-0.84
1514,4.90,-6.72,-4.50, 0.64,0.29,-0.43
1515,4.85,-6.70,-4.40, 0.89,0.51,-0.03
1516,1.05,-0.07,-7.20, 0.15,0.54,0.38
1517,3.79,-6.87,-4.13, 0.10,-0.08,-0.45
1518,4.44,-6.73,-2.87, 0.26,0.24,-0.01
1519,4.42,-6.36,-4.68, -0.01,-0.01,-0.31
1520,5.23,-6.97,-4.81, -0.12,0.20,0.20
1521,4.29,-7.62,-4.11, -0.08,0.24,0.07
1522,4.31,-7.30,-4.65, 0.09,0.21,0.27
1523,3.82,-8.05,-3.08, 0.21,0.02,-0.47
1524,4.75,-7.28,-3.52, -0.05,-0.20,-0.12
1525,4.87,-7.96,-3.93, -0.25,-0.06,-0.18
1526,4.80,-6.55,-3.59, -0.21,0.19,0.32
1527,3.91,-7.65,-2.98, -0.30,0.37,0.48
1528,4.85,-6.95,-4.03, -0.10,0.11,0.20
1529,4.13,-7.64,-3.88, -0.07,0.23,0.21
1530,4.35,-7.30,-3.64, -0.18,0.13,0.05
1531,4.70,-7.27,-4.35, -0.06,0.12,0.12
1532,4.56,-7.37,-3.91, -0.03,0.17,0.19
1533,4.30,-7.72,-3.79, -0.01,0.15,0.17
1534,4.38,-7.28,-3.64, -0.05,-0.12,-0.08
1535,5.77,-7.75,-3.05, -0.15,0.24,0.31
1536,3.43,-7.42,-4.35, -0.09,0.60,0.43
1537,4.40,-7.39,-4.07, -0.10,0.61,0.40
