Step,AccX,AccY,AccZ,GyrX,GyrY,GyrZ
0,0.77,-8.94,20.73, -0.14,0.30,0.00
1,32.95,5.82,7.41, -0.13,1.36,0.95
2,-3.44,0.30,7.52, -0.17,-0.22,-0.11
3,2.58,0.84,10.81, -0.18,-0.01,0.03
4,1.64,0.11,10.12, -0.14,-0.09,0.08
5,0.09,-0.74,10.88, -0.11,-0.07,0.03
6,0.86,-0.62,10.64, -0.08,-0.03,0.01
7,0.73,-0.51,10.68, -0.06,0.00,-0.02
8,0.10,-0.61,10.79, -0.04,0.00,-0.17
9,0.54,0.50,10.83, -0.09,-0.01,-0.05
10,0.50,-0.38,10.80, -0.08,-0.04,-0.11
11,0.11,-0.48,10.67, -0.09,-0.05,-0.04
12,0.48,-0.29,10.71, -0.09,-0.07,-0.01
13,0.82,-0.27,10.70, -0.09,-0.06,-0.02
14,0.75,-0.59,10.69, -0.07,-0.02,-0.01
15,0.28,-0.16,10.72, -0.08,-0.02,-0.01
16,-1.83,0.94,10.77, -0.12,-0.03,-0.10
17,2.86,-0.41,11.02, -0.05,-0.05,0.12
18,-0.50,-1.68,10.71, -0.01,0.03,-0.00
19,-0.60,0.22,10.77, -0.09,0.01,0.02
20,0.90,0.54,10.72, -0.09,-0.07,0.01
21,0.71,-1.57,10.61, -0.06,-0.03,0.01
22,0.49,-0.13,10.74, -0.05,0.04,0.00
23,0.08,0.66,10.83, -0.07,-0.03,0.01
24,0.24,-0.87,10.75, -0.09,-0.07,0.02
25,0.88,-1.09,10.82, -0.06,0.01,0.00
26,-0.00,0.28,10.75, -0.05,0.00,0.00
27,0.35,-0.15,10.79, -0.09,-0.07,0.01
28,1.06,-0.96,10.63, -0.07,-0.02,0.01
29,0.61,0.05,10.80, -0.05,0.02,0.01
30,0.01,0.09,10.73, -0.06,-0.04,0.01
31,0.33,-0.75,10.70, -0.09,-0.05,0.01
32,1.24,-0.23,10.72, -0.06,0.00,0.00
33,0.27,-0.02,10.88, -0.04,-0.00,0.02
34,0.00,-0.34,10.58, -0.08,-0.04,0.01
35,0.86,-0.16,10.66, -0.09,-0.04,0.00
36,0.91,-0.38,10.80, -0.05,-0.00,0.01
37,-0.03,-0.39,10.77, -0.05,-0.00,0.01
38,0.37,0.09,10.73, -0.09,-0.04,0.00
39,1.11,-0.29,10.67, -0.07,-0.02,0.01
40,0.56,-0.34,10.75, -0.04,0.00,0.01
41,-0.03,-0.18,10.72, -0.07,-0.02,0.01
42,0.55,-0.15,10.69, -0.09,-0.04,0.01
43,0.91,-0.50,10.71, -0.06,-0.02,0.01
44,0.29,-0.37,10.68, -0.05,0.00,0.01
45,0.17,-0.01,10.81, -0.07,-0.02,0.01
46,0.58,-0.30,10.74, -0.07,-0.04,0.01
47,0.69,-0.54,10.67, -0.06,-0.01,0.01
48,0.40,-0.15,10.69, -0.06,-0.00,0.01
49,0.29,-0.04,10.80, -0.07,-0.03,0.01
50,0.53,-0.49,10.72, -0.07,-0.03,0.01
51,0.57,-0.59,10.76, -0.06,-0.01,0.01
52,0.22,-0.14,10.83, -0.06,-0.01,0.01
53,0.38,-0.28,10.72, -0.08,-0.03,0.01
54,0.69,-0.35,10.74, -0.07,-0.02,0.01
55,0.47,-0.28,10.72, -0.06,-0.00,0.01
56,0.27,-0.17,10.62, -0.07,-0.02,0.01
57,0.58,-0.33,10.74, -0.07,-0.03,0.01
58,0.68,-0.40,10.75, -0.06,-0.02,0.01
59,0.34,-0.27,10.68, -0.06,-0.00,0.01
60,0.31,-0.06,10.83, -0.07,-0.03,0.01
61,0.53,-0.33,10.74, -0.07,-0.03,0.01
62,0.57,-0.41,10.81, -0.06,-0.01,0.01
63,0.44,-0.21,10.76, -0.06,-0.01,0.01
64,0.38,-0.19,10.69, -0.07,-0.03,0.01
65,0.59,-0.38,10.73, -0.07,-0.02,0.01
66,0.54,-0.28,10.77, -0.06,-0.01,0.01
67,0.33,-0.17,10.77, -0.07,-0.02,0.01
68,0.40,-0.32,10.80, -0.07,-0.03,0.01
69,0.62,-0.38,10.69, -0.07,-0.02,0.01
70,0.41,-0.18,10.74, -0.06,-0.01,0.01
71,0.33,-0.21,10.68, -0.07,-0.02,0.01
72,0.52,-0.28,10.77, -0.07,-0.03,0.01
73,0.59,-0.32,10.69, -0.07,-0.01,0.01
74,0.34,-0.28,10.75, -0.06,-0.01,0.01
75,0.39,-0.24,10.76, -0.07,-0.02,0.01
76,0.59,-0.34,10.72, -0.07,-0.03,0.01
77,0.60,-0.34,10.80, -0.06,-0.01,0.01
78,0.46,-0.20,10.77, -0.07,-0.01,0.01
79,0.45,-0.22,10.80, -0.07,-0.03,0.01
80,0.50,-0.47,10.70, -0.07,-0.02,0.01
81,0.52,-0.21,10.82, -0.07,-0.01,0.01
82,0.49,-0.18,10.67, -0.06,-0.02,0.01
83,0.41,-0.43,10.72, -0.07,-0.03,0.01
84,0.58,-0.34,10.76, -0.07,-0.02,0.01
85,0.52,-0.12,10.74, -0.06,-0.01,0.01
86,0.31,-0.27,10.70, -0.07,-0.03,0.01
87,0.51,-0.41,10.77, -0.07,-0.02,0.01
88,0.63,-0.19,10.80, -0.07,-0.01,0.01
89,0.43,-0.27,10.72, -0.06,-0.02,0.01
90,0.35,-0.33,10.71, -0.07,-0.02,0.01
91,0.57,-0.27,10.72, -0.07,-0.02,0.01
92,0.51,-0.26,10.73, -0.06,-0.01,0.01
93,0.32,-0.28,10.73, -0.07,-0.02,0.01
94,0.43,-0.33,10.81, -0.07,-0.02,0.01
95,0.57,-0.25,10.74, -0.07,-0.02,0.01
96,0.43,-0.33,10.80, -0.06,-0.02,0.01
97,0.41,-0.21,10.68, -0.07,-0.02,0.01
98,0.49,-0.28,10.66, -0.07,-0.02,0.01
99,0.63,-0.12,10.72, -0.06,-0.02,0.01
100,0.21,-0.64,10.78, -0.05,-0.02,0.02
101,0.42,-0.40,10.74, -0.08,-0.01,0.00
102,0.78,0.09,10.70, -0.07,-0.02,0.01
103,0.51,-0.36,10.71, -0.06,-0.02,0.02
104,0.23,-0.58,10.77, -0.06,-0.01,0.01
105,0.50,-0.13,10.76, -0.08,-0.02,0.00
106,0.65,-0.21,10.71, -0.06,-0.02,0.02
107,0.36,-0.60,10.74, -0.07,-0.02,0.01
108,0.50,-0.02,10.75, -0.07,-0.01,0.00
109,0.57,-0.11,10.76, -0.07,-0.03,0.01
110,0.37,-0.56,10.76, -0.06,-0.02,0.01
111,0.54,-0.25,10.71, -0.07,-0.01,0.01
112,0.51,-0.02,10.80, -0.07,-0.02,0.01
113,0.45,-0.40,10.75, -0.07,-0.02,0.01
114,0.52,-0.40,10.72, -0.07,-0.02,0.01
115,0.52,-0.17,10.76, -0.07,-0.02,0.01
116,0.36,-0.33,10.64, -0.06,-0.02,0.01
117,0.41,-0.52,10.72, -0.07,-0.02,0.01
118,0.45,-0.26,10.63, -0.07,-0.01,0.01
119,0.52,-0.07,10.66, -0.07,-0.02,0.01
120,0.48,-0.35,10.66, -0.06,-0.03,0.01
121,0.43,-0.51,10.74, -0.07,-0.02,0.01
122,0.58,-0.11,10.72, -0.06,-0.02,0.01
123,0.45,-0.31,10.75, -0.07,-0.02,0.01
124,0.41,-0.38,10.70, -0.07,-0.02,0.01
125,0.52,-0.18,10.82, -0.07,-0.02,0.01
126,0.45,-0.28,10.64, -0.06,-0.02,0.01
127,0.38,-0.38,10.76, -0.07,-0.02,0.01
128,0.48,-0.26,10.79, -0.07,-0.02,0.01
129,0.50,-0.13,10.90, -0.07,-0.02,0.01
130,0.40,-0.39,10.79, -0.06,-0.02,0.01
131,0.42,-0.35,10.71, -0.07,-0.02,0.01
132,0.47,-0.23,10.69, -0.07,-0.02,0.01
133,0.53,-0.14,10.71, -0.06,-0.02,0.01
134,0.39,-0.36,10.78, -0.07,-0.02,0.01
135,0.50,-0.29,10.76, -0.07,-0.02,0.01
136,0.62,-0.17,10.77, -0.07,-0.02,0.01
137,0.43,-0.32,10.75, -0.06,-0.02,0.01
138,0.38,-0.35,10.73, -0.07,-0.02,0.01
139,0.52,-0.28,10.75, -0.07,-0.02,0.01
140,0.57,-0.22,10.75, -0.06,-0.02,0.01
141,0.32,-0.37,10.74, -0.07,-0.02,0.01
142,0.45,-0.28,10.72, -0.07,-0.02,0.01
143,0.52,-0.22,10.74, -0.07,-0.02,0.01
144,0.48,-0.28,10.76, -0.06,-0.02,0.01
145,0.43,-0.34,10.77, -0.07,-0.02,0.01
146,0.58,-0.22,10.70, -0.07,-0.02,0.01
147,0.51,-0.32,10.78, -0.06,-0.02,0.01
148,0.51,-0.26,10.76, -0.06,-0.02,0.01
149,0.42,-0.34,10.76, -0.07,-0.02,0.01
150,0.50,-0.22,10.75, -0.07,-0.02,0.01
151,0.46,-0.29,10.75, -0.06,-0.02,0.01
152,0.46,-0.29,10.80, -0.07,-0.02,0.01
153,0.52,-0.28,10.67, -0.07,-0.02,0.01
154,0.49,-0.27,10.72, -0.07,-0.02,0.01
155,0.44,-0.32,10.73, -0.06,-0.02,0.01
156,0.44,-0.42,10.73, -0.07,-0.02,0.01
157,0.46,-0.29,10.75, -0.07,-0.02,0.01
158,0.49,-0.21,10.71, -0.07,-0.02,0.01
159,0.39,-0.24,10.75, -0.07,-0.02,0.01
160,0.41,-0.35,10.74, -0.07,-0.02,0.01
161,0.50,-0.32,10.70, -0.07,-0.02,0.01
162,0.46,-0.34,10.78, -0.07,-0.02,0.01
163,0.35,-0.36,10.80, -0.06,-0.02,0.01
164,0.53,-0.27,10.77, -0.07,-0.02,0.01
165,0.50,-0.17,10.70, -0.07,-0.02,0.01
166,0.47,-0.27,10.66, -0.06,-0.02,0.01
167,0.41,-0.30,10.75, -0.07,-0.02,0.01
168,0.50,-0.32,10.72, -0.07,-0.02,0.01
169,0.52,-0.26,10.66, -0.07,-0.02,0.01
170,0.48,-0.33,10.80, -0.07,-0.02,0.01
171,0.52,-0.29,10.68, -0.07,-0.02,0.01
172,0.48,-0.26,10.71, -0.07,-0.02,0.01
173,0.44,-0.27,10.80, -0.07,-0.02,0.01
174,0.40,-0.29,10.75, -0.07,-0.02,0.01
175,0.54,-0.31,10.74, -0.06,-0.02,0.01
176,0.41,-0.37,10.72, -0.06,-0.02,0.01
177,0.45,-0.28,10.68, -0.07,-0.02,0.01
178,0.51,-0.21,10.74, -0.07,-0.02,0.01
179,0.49,-0.36,10.69, -0.07,-0.02,0.01
180,0.53,-0.31,10.68, -0.07,-0.02,0.01
181,0.46,-0.24,10.67, -0.07,-0.02,0.01
182,0.50,-0.30,10.70, -0.06,-0.02,0.01
183,0.34,-0.59,10.67, -0.06,-0.02,0.01
184,0.60,-0.15,10.79, -0.07,-0.02,0.00
185,0.65,0.01,10.71, -0.07,-0.03,0.01
186,0.36,-0.45,10.71, -0.06,-0.02,0.02
187,0.42,-0.38,10.75, -0.07,-0.02,0.01
188,0.64,0.00,10.75, -0.07,-0.02,0.01
189,0.32,-0.47,10.76, -0.06,-0.02,0.01
190,0.46,-0.44,10.75, -0.07,-0.01,0.01
191,0.62,-0.04,10.61, -0.07,-0.01,0.01
192,0.42,-0.33,10.62, -0.06,-0.02,0.01
193,0.44,-0.50,10.69, -0.07,-0.01,0.01
194,0.49,-0.17,10.85, -0.07,-0.02,0.01
195,0.62,-0.14,10.69, -0.06,-0.02,0.01
196,0.36,-0.40,10.67, -0.06,-0.02,0.01
197,0.44,-0.33,10.70, -0.07,-0.02,0.01
198,0.61,-0.12,10.71, -0.07,-0.02,0.01
199,0.39,-0.35,10.72, -0.06,-0.02,0.01
200,0.44,-0.40,10.75, -0.07,-0.02,0.01
201,0.57,-0.13,10.76, -0.07,-0.02,0.01
202,0.41,-0.26,10.63, -0.06,-0.02,0.01
203,0.41,-0.35,10.77, -0.07,-0.02,0.01
204,0.51,-0.22,10.71, -0.07,-0.02,0.01
205,0.49,-0.26,10.79, -0.06,-0.02,0.01
206,0.43,-0.34,10.66, -0.07,-0.02,0.01
207,0.40,-0.33,10.72, -0.07,-0.02,0.01
208,0.48,-0.27,10.69, -0.07,-0.02,0.01
209,0.43,-0.27,10.64, -0.06,-0.02,0.01
210,0.36,-0.34,10.77, -0.07,-0.02,0.01
211,0.50,-0.27,10.67, -0.07,-0.02,0.01
212,0.62,-0.19,10.76, -0.06,-0.02,0.01
213,0.41,-0.33,10.67, -0.07,-0.02,0.01
214,0.39,-0.34,10.66, -0.07,-0.02,0.01
215,0.57,-0.22,10.77, -0.07,-0.01,0.01
216,0.49,-0.33,10.67, -0.07,-0.02,0.01
217,0.39,-0.29,10.75, -0.07,-0.02,0.01
218,0.44,-0.24,10.77, -0.07,-0.02,0.01
219,0.50,-0.22,10.84, -0.07,-0.02,0.01
220,0.44,-0.30,10.64, -0.06,-0.02,0.01
221,0.52,-0.32,10.75, -0.07,-0.02,0.01
222,0.54,-0.32,10.67, -0.07,-0.02,0.01
223,0.44,-0.28,10.79, -0.07,-0.02,0.01
224,0.40,-0.32,10.72, -0.07,-0.02,0.01
225,0.51,-0.30,10.71, -0.07,-0.02,0.01
226,0.46,-0.30,10.71, -0.06,-0.02,0.01
227,0.47,-0.30,10.79, -0.06,-0.02,0.01
228,0.47,-0.25,10.73, -0.07,-0.02,0.01
229,0.52,-0.31,10.67, -0.07,-0.02,0.01
230,0.44,-0.25,10.81, -0.07,-0.02,0.01
231,0.54,-0.27,10.71, -0.07,-0.02,0.01
232,0.44,-0.26,10.66, -0.07,-0.02,0.01
233,0.48,-0.34,10.73, -0.07,-0.02,0.01
234,0.35,-0.38,10.68, -0.07,-0.02,0.01
235,0.47,-0.22,10.75, -0.07,-0.02,0.01
236,0.48,-0.34,10.66, -0.06,-0.02,0.01
237,0.47,-0.37,10.71, -0.07,-0.02,0.01
238,0.49,-0.29,10.72, -0.07,-0.02,0.01
239,0.53,-0.21,10.77, -0.07,-0.02,0.01
240,0.38,-0.38,10.72, -0.07,-0.02,0.01
241,0.46,-0.29,10.74, -0.07,-0.02,0.01
242,0.54,-0.27,10.77, -0.07,-0.02,0.01
243,0.45,-0.38,10.70, -0.07,-0.02,0.01
244,0.43,-0.27,10.64, -0.07,-0.02,0.01
245,0.56,-0.27,10.68, -0.07,-0.02,0.01
246,0.53,-0.34,10.75, -0.06,-0.02,0.01
247,0.39,-0.35,10.81, -0.07,-0.02,0.01
248,0.47,-0.27,10.75, -0.07,-0.02,0.01
249,0.44,-0.34,10.79, -0.06,-0.02,0.01
250,0.42,-0.31,10.76, -0.07,-0.02,0.01
251,0.48,-0.27,10.75, -0.07,-0.02,0.01
252,0.48,-0.33,10.72, -0.07,-0.02,0.01
253,0.49,-0.30,10.69, -0.06,-0.02,0.01
254,0.45,-0.32,10.72, -0.06,-0.02,0.01
255,0.47,-0.19,10.75, -0.07,-0.02,0.01
256,0.51,-0.26,10.85, -0.07,-0.02,0.01
257,0.45,-0.31,10.74, -0.07,-0.02,0.01
258,0.49,-0.27,10.66, -0.07,-0.02,0.01
259,0.51,-0.26,10.75, -0.07,-0.02,0.01
260,0.52,-0.29,10.73, -0.07,-0.02,0.01
261,0.37,-0.36,10.73, -0.07,-0.02,0.01
262,0.46,-0.29,10.70, -0.07,-0.02,0.01
263,0.54,-0.21,10.75, -0.07,-0.02,0.01
264,0.50,-0.34,10.73, -0.06,-0.02,0.01
265,0.46,-0.30,10.81, -0.07,-0.02,0.01
266,0.54,-0.30,10.70, -0.07,-0.02,0.01
267,0.53,-0.36,10.72, -0.07,-0.02,0.01
268,0.49,-0.26,10.77, -0.07,-0.02,0.01
269,0.49,-0.26,10.75, -0.07,-0.02,0.01
270,0.46,-0.31,10.71, -0.07,-0.02,0.01
271,0.47,-0.40,10.74, -0.06,-0.02,0.01
272,0.42,-0.24,10.75, -0.07,-0.02,0.01
273,0.42,-0.28,10.67, -0.06,-0.02,0.01
274,0.48,-0.33,10.75, -0.07,-0.02,0.01
275,0.53,-0.31,10.69, -0.06,-0.02,0.01
276,0.50,-0.23,10.68, -0.07,-0.02,0.01
277,0.50,-0.25,10.76, -0.07,-0.02,0.01
278,0.45,-0.26,10.77, -0.07,-0.02,0.01
279,0.45,-0.28,10.77, -0.07,-0.02,0.01
280,0.50,-0.24,10.79, -0.07,-0.02,0.01
281,0.43,-0.27,10.75, -0.07,-0.02,0.01
282,0.53,-0.35,10.71, -0.06,-0.02,0.01
283,0.44,-0.24,10.77, -0.07,-0.02,0.01
284,0.48,-0.27,10.75, -0.07,-0.02,0.01
285,0.45,-0.30,10.74, -0.07,-0.02,0.01
286,0.50,-0.30,10.77, -0.07,-0.02,0.01
287,0.51,-0.28,10.73, -0.07,-0.02,0.01
288,0.50,-0.34,10.71, -0.07,-0.02,0.01
289,0.45,-0.31,10.69, -0.07,-0.02,0.01
290,0.48,-0.26,10.68, -0.07,-0.02,0.01
291,0.46,-0.27,10.77, -0.07,-0.02,0.01
292,0.51,-0.28,10.70, -0.07,-0.02,0.01
293,0.53,-0.27,10.72, -0.07,-0.02,0.01
294,0.44,-0.30,10.74, -0.07,-0.02,0.01
295,0.49,-0.32,10.71, -0.07,-0.02,0.01
296,0.48,-0.27,10.79, -0.07,-0.02,0.01
297,0.50,-0.27,10.75, -0.07,-0.02,0.01
298,0.45,-0.28,10.69, -0.07,-0.02,0.01
299,0.55,-0.25,10.75, -0.07,-0.02,0.01
300,0.42,-0.28,10.72, -0.07,-0.02,0.01
301,0.50,-0.23,10.80, -0.07,-0.02,0.01
302,0.50,-0.29,10.64, -0.07,-0.02,0.01
303,0.51,-0.31,10.74, -0.06,-0.02,0.01
304,0.45,-0.37,10.73, -0.07,-0.02,0.01
305,0.42,-0.35,10.65, -0.07,-0.02,0.01
306,0.51,-0.27,10.74, -0.06,-0.02,0.01
307,0.46,-0.25,10.76, -0.07,-0.02,0.01
308,0.44,-0.29,10.73, -0.07,-0.02,0.01
309,0.49,-0.26,10.72, -0.07,-0.02,0.01
310,0.43,-0.24,10.74, -0.07,-0.02,0.01
311,0.40,-0.30,10.82, -0.07,-0.02,0.01
312,0.47,-0.31,10.69, -0.06,-0.02,0.01
313,0.47,-0.27,10.79, -0.07,-0.02,0.01
314,0.56,-0.32,10.60, -0.07,-0.02,0.01
315,0.47,-0.25,10.76, -0.07,-0.02,0.01
316,0.47,-0.27,10.67, -0.07,-0.02,0.01
317,0.45,-0.30,10.74, -0.06,-0.02,0.01
318,0.50,-0.36,10.75, -0.07,-0.02,0.01
319,0.46,-0.28,10.78, -0.07,-0.02,0.01
320,0.52,-0.30,10.76, -0.07,-0.02,0.01
321,0.45,-0.32,10.69, -0.07,-0.02,0.01
322,0.44,-0.30,10.75, -0.07,-0.02,0.01
323,0.46,-0.25,10.70, -0.07,-0.02,0.01
324,0.48,-0.33,10.75, -0.07,-0.02,0.01
325,0.45,-0.27,10.75, -0.06,-0.02,0.01
326,0.48,-0.26,10.70, -0.07,-0.02,0.01
327,0.45,-0.34,10.77, -0.07,-0.02,0.01
328,0.47,-0.32,10.72, -0.07,-0.02,0.01
329,0.43,-0.26,10.73, -0.07,-0.02,0.01
330,0.47,-0.27,10.76, -0.07,-0.02,0.01
331,0.45,-0.28,10.79, -0.07,-0.02,0.01
332,0.42,-0.31,10.70, -0.06,-0.02,0.01
333,0.43,-0.28,10.72, -0.07,-0.02,0.01
334,0.42,-0.33,10.70, -0.07,-0.02,0.01
335,0.54,-0.27,10.66, -0.07,-0.02,0.01
336,0.46,-0.28,10.72, -0.07,-0.02,0.01
337,0.38,-0.29,10.75, -0.07,-0.02,0.01
338,0.50,-0.33,10.80, -0.07,-0.02,0.01
339,0.48,-0.27,10.74, -0.07,-0.02,0.01
340,0.44,-0.29,10.73, -0.07,-0.02,0.01
341,0.55,-0.33,10.66, -0.07,-0.02,0.01
342,0.45,-0.28,10.73, -0.07,-0.02,0.01
343,0.43,-0.29,10.78, -0.07,-0.02,0.01
344,0.45,-0.33,10.74, -0.07,-0.02,0.01
345,0.47,-0.29,10.69, -0.07,-0.02,0.01
346,0.56,-0.31,10.72, -0.07,-0.02,0.01
347,0.50,-0.31,10.77, -0.07,-0.02,0.01
348,0.40,-0.29,10.75, -0.07,-0.02,0.01
349,0.44,-0.29,10.68, -0.06,-0.02,0.01
350,0.43,-0.28,10.82, -0.07,-0.02,0.01
351,0.53,-0.30,10.72, -0.07,-0.02,0.01
352,0.50,-0.25,10.67, -0.07,-0.02,0.01
353,0.50,-0.27,10.73, -0.07,-0.02,0.01
354,0.46,-0.26,10.73, -0.07,-0.02,0.01
355,0.50,-0.32,10.72, -0.07,-0.02,0.01
356,0.44,-0.31,10.71, -0.07,-0.02,0.01
357,0.55,-0.29,10.68, -0.07,-0.02,0.01
358,0.45,-0.28,10.70, -0.07,-0.02,0.01
359,0.51,-0.29,10.71, -0.07,-0.02,0.01
360,0.52,-0.32,10.83, -0.07,-0.02,0.01
361,0.46,-0.28,10.71, -0.07,-0.02,0.01
362,0.42,-0.31,10.64, -0.07,-0.02,0.01
363,0.50,-0.27,10.71, -0.07,-0.02,0.01
364,0.49,-0.30,10.71, -0.07,-0.02,0.01
365,0.42,-0.26,10.76, -0.06,-0.02,0.01
366,0.46,-0.24,10.75, -0.07,-0.02,0.01
367,0.54,-0.25,10.68, -0.06,-0.02,0.01
368,0.47,-0.28,10.70, -0.07,-0.02,0.01
369,0.49,-0.34,10.71, -0.07,-0.02,0.01
370,0.42,-0.33,10.76, -0.07,-0.02,0.01
371,0.48,-0.29,10.72, -0.07,-0.02,0.01
372,0.46,-0.34,10.69, -0.07,-0.02,0.01
373,0.53,-0.21,10.73, -0.07,-0.02,0.01
374,0.47,-0.24,10.72, -0.07,-0.02,0.01
375,0.50,-0.28,10.72, -0.07,-0.02,0.01
376,0.51,-0.27,10.73, -0.07,-0.02,0.01
377,0.45,-0.31,10.69, -0.07,-0.02,0.01
378,0.48,-0.30,10.65, -0.06,-0.02,0.01
379,0.43,-0.24,10.76, -0.06,-0.02,0.01
380,0.45,-0.24,10.80, -0.07,-0.02,0.01
381,0.45,-0.26,10.76, -0.06,-0.02,0.01
382,0.45,-0.28,10.72, -0.07,-0.02,0.01
383,0.48,-0.30,10.68, -0.06,-0.02,0.01
384,0.51,-0.30,10.69, -0.07,-0.02,0.01
385,0.50,-0.25,10.72, -0.07,-0.02,0.01
386,0.47,-0.28,10.69, -0.07,-0.02,0.01
387,0.41,-0.32,10.74, -0.07,-0.02,0.01
388,0.49,-0.25,10.74, -0.06,-0.02,0.01
389,0.50,-0.32,10.69, -0.07,-0.02,0.01
390,0.47,-0.33,10.69, -0.06,-0.02,0.01
391,0.49,-0.29,10.75, -0.07,-0.02,0.01
392,0.47,-0.29,10.76, -0.06,-0.02,0.01
393,0.44,-0.32,10.84, -0.07,-0.02,0.01
394,0.48,-0.29,10.67, -0.07,-0.02,0.01
395,0.50,-0.23,10.75, -0.07,-0.02,0.01
396,0.45,-0.34,10.69, -0.06,-0.02,0.01
397,0.40,-0.28,10.69, -0.07,-0.02,0.01
398,0.46,-0.28,10.67, -0.06,-0.02,0.01
399,0.43,-0.26,10.70, -0.07,-0.02,0.01
400,0.42,-0.26,10.75, -0.07,-0.02,0.01
401,0.50,-0.34,10.69, -0.07,-0.02,0.01
402,0.49,-0.22,10.75, -0.07,-0.02,0.01
403,0.49,-0.29,10.68, -0.07,-0.02,0.01
404,0.46,-0.31,10.81, -0.07,-0.02,0.01
405,0.45,-0.27,10.78, -0.07,-0.02,0.01
406,0.43,-0.30,10.68, -0.07,-0.02,0.01
407,0.48,-0.30,10.70, -0.07,-0.02,0.01
408,0.55,-0.26,10.72, -0.06,-0.02,0.01
409,0.48,-0.34,10.77, -0.07,-0.02,0.01
410,0.47,-0.33,10.71, -0.07,-0.02,0.01
411,0.48,-0.25,10.81, -0.07,-0.02,0.01
412,0.54,-0.31,10.76, -0.07,-0.02,0.01
413,0.50,-0.28,10.65, -0.07,-0.02,0.01
414,0.50,-0.27,10.71, -0.07,-0.02,0.01
415,0.49,-0.19,10.73, -0.07,-0.02,0.01
416,0.48,-0.31,10.70, -0.07,-0.02,0.01
417,0.46,-0.28,10.75, -0.07,-0.02,0.01
418,0.48,-0.33,10.67, -0.07,-0.02,0.01
419,0.47,-0.23,10.74, -0.07,-0.02,0.01
420,0.47,-0.30,10.70, -0.07,-0.02,0.01
421,0.42,-0.29,10.79, -0.06,-0.02,0.01
422,0.49,-0.21,10.69, -0.07,-0.02,0.01
423,0.46,-0.28,10.71, -0.07,-0.02,0.01
424,0.43,-0.33,10.72, -0.07,-0.02,0.01
425,0.47,-0.35,10.66, -0.07,-0.02,0.01
426,0.55,-0.29,10.72, -0.07,-0.02,0.01
427,0.50,-0.25,10.71, -0.07,-0.02,0.01
428,0.49,-0.26,10.74, -0.07,-0.01,0.01
429,0.48,-0.30,10.67, -0.07,-0.02,0.01
430,0.47,-0.29,10.75, -0.06,-0.02,0.01
431,0.45,-0.32,10.70, -0.07,-0.02,0.01
432,0.48,-0.33,10.69, -0.07,-0.02,0.01
433,0.42,-0.26,10.73, -0.07,-0.02,0.01
434,0.43,-0.34,10.72, -0.07,-0.02,0.01
435,0.48,-0.33,10.74, -0.07,-0.02,0.01
436,0.48,-0.24,10.76, -0.07,-0.02,0.01
437,0.44,-0.26,10.73, -0.06,-0.02,0.01
438,0.46,-0.30,10.73, -0.07,-0.02,0.01
439,0.43,-0.33,10.73, -0.07,-0.02,0.01
440,0.45,-0.28,10.84, -0.07,-0.02,0.01
441,0.48,-0.29,10.66, -0.07,-0.02,0.01
442,0.39,-0.34,10.74, -0.06,-0.02,0.01
443,0.52,-0.38,10.81, -0.07,-0.02,0.01
444,0.49,-0.30,10.62, -0.07,-0.02,0.01
445,0.43,-0.31,10.64, -0.06,-0.02,0.01
446,0.46,-0.34,10.69, -0.07,-0.02,0.01
447,0.51,-0.24,10.70, -0.07,-0.02,0.01
448,0.49,-0.33,10.75, -0.07,-0.02,0.01
449,0.39,-0.25,10.73, -0.07,-0.02,0.01
450,0.49,-0.25,10.74, -0.07,-0.02,0.01
451,0.48,-0.27,10.75, -0.07,-0.02,0.01
452,0.48,-0.19,10.72, -0.07,-0.02,0.01
453,0.44,-0.31,10.76, -0.07,-0.02,0.01
454,0.41,-0.28,10.72, -0.07,-0.02,0.01
455,0.52,-0.27,10.73, -0.07,-0.02,0.01
456,0.44,-0.28,10.72, -0.06,-0.02,0.01
457,0.51,-0.27,10.75, -0.07,-0.02,0.01
458,0.45,-0.31,10.76, -0.07,-0.02,0.01
459,0.47,-0.25,10.73, -0.07,-0.02,0.01
460,0.42,-0.34,10.64, -0.07,-0.02,0.01
461,0.46,-0.24,10.76, -0.07,-0.02,0.01
462,0.43,-0.36,10.73, -0.07,-0.02,0.01
463,0.50,-0.24,10.74, -0.07,-0.02,0.01
464,0.51,-0.29,10.66, -0.07,-0.02,0.01
465,0.45,-0.33,10.80, -0.07,-0.02,0.01
466,0.47,-0.26,10.75, -0.07,-0.02,0.01
467,0.48,-0.28,10.78, -0.07,-0.02,0.01
468,0.49,-0.28,10.76, -0.07,-0.02,0.01
469,0.50,-0.25,10.69, -0.07,-0.02,0.01
470,0.48,-0.28,10.70, -0.07,-0.02,0.01
471,0.50,-0.27,10.68, -0.07,-0.02,0.01
472,0.47,-0.28,10.73, -0.07,-0.02,0.01
473,0.51,-0.34,10.74, -0.07,-0.02,0.01
474,0.45,-0.28,10.67, -0.06,-0.02,0.01
475,0.44,-0.26,10.78, -0.07,-0.02,0.01
476,0.45,-0.33,10.70, -0.07,-0.02,0.01
477,0.46,-0.30,10.77, -0.07,-0.02,0.01
478,0.50,-0.28,10.78, -0.07,-0.02,0.01
479,0.48,-0.27,10.73, -0.07,-0.02,0.01
480,0.51,-0.30,10.74, -0.07,-0.02,0.01
481,0.52,-0.27,10.72, -0.06,-0.02,0.01
482,0.48,-0.28,10.67, -0.07,-0.02,0.01
483,0.51,-0.33,10.71, -0.06,-0.02,0.01
484,0.48,-0.26,10.75, -0.07,-0.02,0.01
485,0.49,-0.24,10.64, -0.07,-0.02,0.01
486,0.49,-0.31,10.75, -0.07,-0.02,0.01
487,0.43,-0.27,10.72, -0.07,-0.02,0.01
488,0.45,-0.28,10.77, -0.07,-0.02,0.01
489,0.50,-0.30,10.75, -0.07,-0.02,0.01
490,0.49,-0.31,10.74, -0.06,-0.02,0.01
491,0.52,-0.33,10.72, -0.07,-0.02,0.01
492,0.43,-0.30,10.76, -0.07,-0.02,0.01
493,0.55,-0.31,10.67, -0.07,-0.02,0.01
494,0.53,-0.31,10.68, -0.07,-0.02,0.01
495,0.40,-0.28,10.77, -0.07,-0.02,0.01
496,0.42,-0.30,10.75, -0.07,-0.02,0.01
497,0.51,-0.28,10.76, -0.07,-0.02,0.01
498,0.46,-0.35,10.73, -0.07,-0.02,0.01
499,0.45,-0.29,10.69, -0.07,-0.02,0.01
500,0.48,-0.22,10.66, -0.07,-0.02,0.01
501,0.51,-0.30,10.71, -0.06,-0.02,0.01
502,0.45,-0.28,10.75, -0.07,-0.02,0.01
503,0.51,-0.24,10.75, -0.07,-0.02,0.01
504,0.41,-0.35,10.75, -0.06,-0.02,0.01
505,0.40,-0.31,10.73, -0.06,-0.02,0.01
506,0.48,-0.29,10.66, -0.07,-0.02,0.01
507,0.53,-0.25,10.75, -0.07,-0.02,0.01
508,0.51,-0.33,10.71, -0.07,-0.02,0.01
509,0.39,-0.28,10.72, -0.07,-0.01,0.01
510,0.45,-0.28,10.72, -0.07,-0.02,0.01
511,0.45,-0.34,10.73, -0.07,-0.02,0.01
512,0.45,-0.37,10.69, -0.07,-0.02,0.01
513,0.49,-0.28,10.66, -0.07,-0.02,0.01
514,0.45,-0.27,10.81, -0.07,-0.02,0.01
515,0.51,-0.33,10.69, -0.07,-0.02,0.01
516,0.51,-0.26,10.68, -0.07,-0.02,0.01
517,0.50,-0.19,10.79, -0.06,-0.02,0.01
518,0.32,-0.41,10.74, -0.06,-0.02,0.01
519,0.42,-0.44,10.73, -0.07,-0.01,0.01
520,0.58,-0.08,10.78, -0.07,-0.02,0.00
521,0.53,-0.18,10.70, -0.06,-0.02,0.01
522,0.29,-0.51,10.80, -0.06,-0.02,0.01
523,0.54,-0.30,10.74, -0.07,-0.01,0.01
524,0.59,-0.11,10.80, -0.07,-0.02,0.01
525,0.45,-0.36,10.71, -0.06,-0.02,0.01
526,0.40,-0.44,10.80, -0.07,-0.01,0.01
527,0.57,-0.17,10.86, -0.07,-0.02,0.01
528,0.49,-0.35,10.66, -0.06,-0.03,0.01
529,0.32,-0.61,10.71, -0.07,-0.01,0.01
530,0.60,0.06,10.69, -0.07,-0.02,0.01
531,0.58,-0.23,10.73, -0.06,-0.02,0.01
532,0.32,-0.55,10.75, -0.06,-0.02,0.01
533,0.36,-0.36,10.75, -0.08,-0.01,0.00
534,0.68,0.10,10.83, -0.06,-0.02,0.01
535,0.27,-0.57,10.73, -0.06,-0.02,0.01
536,0.45,-0.41,10.82, -0.07,-0.01,0.01
537,0.51,-0.08,10.70, -0.07,-0.01,0.01
538,0.54,-0.18,10.72, -0.06,-0.02,0.02
539,0.38,-0.57,10.78, -0.06,-0.02,0.01
540,0.49,-0.29,10.68, -0.07,-0.01,0.00
541,0.53,-0.11,10.77, -0.07,-0.02,0.01
542,0.48,-0.36,10.77, -0.06,-0.02,0.01
543,0.36,-0.48,10.73, -0.07,-0.02,0.01
544,0.54,-0.11,10.80, -0.07,-0.01,0.01
545,0.50,-0.21,10.80, -0.07,-0.03,0.01
546,0.42,-0.33,10.78, -0.07,-0.02,0.01
547,0.52,-0.31,10.73, -0.07,-0.02,0.01
548,0.45,-0.21,10.64, -0.06,-0.02,0.01
549,0.47,-0.32,10.79, -0.07,-0.02,0.01
550,0.48,-0.37,10.66, -0.07,-0.02,0.01
551,0.44,-0.22,10.78, -0.06,-0.01,0.01
552,0.42,-0.35,10.78, -0.07,-0.02,0.01
553,0.49,-0.32,10.70, -0.07,-0.02,0.01
554,0.53,-0.27,10.88, -0.07,-0.02,0.01
555,0.73,-0.04,10.64, -0.05,-0.02,0.02
556,0.06,-0.79,10.78, -0.06,-0.01,0.01
557,0.39,-0.13,10.73, -0.08,-0.02,0.00
558,0.80,-0.05,10.71, -0.07,-0.02,0.01
559,0.42,-0.37,10.78, -0.05,-0.01,0.02
560,0.17,-0.50,10.74, -0.07,-0.02,0.01
561,0.74,0.08,10.80, -0.08,-0.03,0.01
562,0.50,-0.35,10.70, -0.06,-0.02,0.01
563,0.33,-0.51,10.77, -0.06,-0.01,0.01
564,0.48,-0.17,10.75, -0.08,-0.02,0.01
565,0.66,-0.17,10.75, -0.07,-0.02,0.01
566,0.41,-0.36,10.81, -0.06,-0.02,0.01
567,0.32,-0.29,10.67, -0.07,-0.02,0.01
568,0.57,-0.23,10.78, -0.07,-0.02,0.01
569,0.65,-0.25,10.70, -0.06,-0.02,0.01
570,0.40,-0.36,10.72, -0.06,-0.02,0.01
571,0.39,-0.26,10.82, -0.07,-0.02,0.01
572,0.58,-0.23,10.69, -0.07,-0.02,0.01
573,0.45,-0.29,10.82, -0.06,-0.02,0.01
574,0.38,-0.27,10.75, -0.07,-0.02,0.01
575,0.49,-0.20,10.77, -0.07,-0.02,0.01
576,0.53,-0.33,10.75, -0.07,-0.02,0.01
577,0.44,-0.38,10.64, -0.06,-0.01,0.01
578,0.45,-0.17,10.68, -0.07,-0.02,0.01
579,0.56,-0.26,10.79, -0.07,-0.02,0.01
580,0.54,-0.23,10.64, -0.06,-0.02,0.01
581,0.30,-0.41,10.73, -0.06,-0.02,0.01
582,0.47,-0.32,10.74, -0.07,-0.02,0.01
583,0.59,-0.27,10.75, -0.07,-0.02,0.00
584,0.46,-0.20,10.79, -0.06,-0.02,0.01
585,0.44,-0.38,10.75, -0.07,-0.02,0.01
586,0.58,-0.29,10.80, -0.07,-0.02,0.01
587,0.52,-0.28,10.71, -0.07,-0.01,0.01
588,0.45,-0.25,10.70, -0.07,-0.02,0.01
589,0.42,-0.36,10.81, -0.07,-0.02,0.01
590,0.54,-0.29,10.81, -0.07,-0.01,0.01
591,0.44,-0.29,10.72, -0.06,-0.02,0.01
592,0.45,-0.28,10.70, -0.07,-0.02,0.01
593,0.58,-0.34,10.79, -0.07,-0.02,0.01
594,0.53,-0.28,10.66, -0.07,-0.01,0.01
595,0.46,-0.22,10.76, -0.07,-0.02,0.01
596,0.51,-0.30,10.78, -0.07,-0.02,0.01
597,0.51,-0.29,10.73, -0.07,-0.02,0.01
598,0.51,-0.25,10.78, -0.06,-0.02,0.01
599,0.50,-0.35,10.74, -0.07,-0.02,0.01
600,0.44,-0.28,10.74, -0.07,-0.02,0.01
601,0.51,-0.38,10.71, -0.07,-0.02,0.01
602,0.45,-0.33,10.74, -0.07,-0.02,0.01
603,0.52,-0.23,10.74, -0.07,-0.02,0.01
604,0.54,-0.33,10.68, -0.07,-0.02,0.01
605,0.41,-0.36,10.80, -0.06,-0.02,0.01
606,0.42,-0.30,10.72, -0.07,-0.02,0.01
607,0.51,-0.32,10.71, -0.07,-0.02,0.01
608,0.51,-0.30,10.73, -0.07,-0.02,0.01
609,0.50,-0.32,10.79, -0.07,-0.02,0.01
610,0.46,-0.27,10.67, -0.07,-0.02,0.01
611,0.48,-0.28,10.73, -0.07,-0.02,0.01
612,0.50,-0.28,10.72, -0.07,-0.02,0.01
613,0.42,-0.28,10.69, -0.07,-0.01,0.01
614,0.50,-0.16,10.71, -0.06,-0.02,0.01
615,0.47,-0.30,10.69, -0.07,-0.02,0.01
616,0.48,-0.31,10.81, -0.07,-0.02,0.01
617,0.36,-0.25,10.78, -0.07,-0.02,0.01
618,0.45,-0.26,10.75, -0.07,-0.02,0.01
619,0.52,-0.29,10.79, -0.07,-0.02,0.01
620,0.51,-0.28,10.78, -0.06,-0.02,0.01
621,0.48,-0.26,10.79, -0.07,-0.02,0.01
622,0.45,-0.35,10.71, -0.07,-0.02,0.01
623,0.47,-0.35,10.71, -0.06,-0.02,0.01
624,0.41,-0.29,10.71, -0.06,-0.01,0.01
625,0.44,-0.27,10.64, -0.07,-0.02,0.01
626,0.45,-0.30,10.73, -0.06,-0.02,0.01
627,0.49,-0.29,10.81, -0.07,-0.02,0.01
628,0.46,-0.21,10.72, -0.06,-0.02,0.01
629,0.51,-0.30,10.78, -0.07,-0.02,0.01
630,0.46,-0.32,10.76, -0.07,-0.02,0.01
631,1.61,-1.66,10.87, -0.03,0.01,0.00
632,0.87,-1.44,10.75, 0.08,0.14,0.11
633,-1.12,1.85,10.60, -0.12,0.03,-0.14
634,2.72,0.86,11.21, -0.24,0.18,-0.96
635,1.34,0.98,10.72, -0.43,0.38,-0.77
636,-1.66,-1.76,10.54, -0.42,0.24,-0.45
637,-1.27,-2.25,10.47, -0.22,0.04,-0.50
638,0.37,-0.33,10.84, -0.10,-0.01,-0.59
639,1.53,-0.22,10.88, -0.17,0.03,-0.31
640,1.32,-1.73,10.56, -0.11,0.10,0.11
641,-0.95,-0.14,10.77, -0.07,0.02,0.32
642,-1.37,-1.84,10.63, -0.01,-0.14,0.26
643,1.26,-0.90,10.81, 0.08,-0.09,-0.14
644,-0.27,-1.75,10.24, 0.16,-0.00,0.08
645,-0.54,1.25,10.66, -0.01,-0.09,0.28
646,0.98,1.53,13.43, -0.43,0.25,0.36
647,-0.23,0.81,15.08, -0.92,0.40,-0.36
648,1.70,2.44,14.12, -1.14,0.44,-0.99
649,1.91,1.29,13.94, -0.98,0.57,-1.13
650,0.27,1.24,13.76, -0.41,0.40,-1.12
651,1.13,1.96,13.31, 0.11,0.18,-0.89
652,1.69,1.31,13.46, 0.53,0.26,-0.67
653,1.31,1.50,13.48, 0.64,0.48,-0.62
654,1.18,1.93,13.40, 0.53,0.69,-0.65
655,1.33,1.64,13.01, 0.29,0.94,-0.89
656,0.37,1.82,12.76, 0.13,1.03,-1.19
657,0.51,2.30,12.33, 0.12,0.94,-1.34
658,0.07,2.46,11.87, 0.19,0.75,-1.18
659,0.23,2.05,11.05, 0.46,0.54,-0.93
660,0.90,1.34,10.50, 0.75,0.42,-0.73
661,1.11,0.19,10.52, 0.98,0.47,-0.73
662,0.13,0.91,10.75, 1.11,0.48,-1.11
663,-2.05,2.57,10.70, 1.03,0.18,-0.88
664,-1.82,2.78,10.54, 0.96,-0.29,-0.35
665,-0.84,1.36,10.14, 1.00,-0.59,-0.21
666,-0.01,0.24,9.63, 1.22,-0.70,-0.07
667,-0.34,0.95,9.73, 1.36,-0.80,0.32
668,-1.35,1.98,10.52, 1.34,-1.02,0.46
669,-1.10,2.24,9.99, 1.10,-1.28,0.10
670,0.53,2.09,8.90, 0.94,-1.19,-0.07
671,1.08,0.70,8.15, 0.81,-0.86,0.10
672,0.09,-0.51,8.85, 0.87,-0.58,0.23
673,-1.25,1.11,9.65, 0.85,-0.68,0.31
674,-0.99,1.37,9.27, 0.68,-0.86,0.29
675,0.46,1.21,8.71, 0.62,-0.77,0.23
676,0.10,0.40,8.31, 0.55,-0.49,0.32
677,0.21,0.22,8.49, 0.50,-0.29,0.20
678,-0.12,1.60,8.83, 0.26,-0.19,0.10
679,0.54,1.48,8.70, -0.10,-0.12,0.09
680,2.81,-2.01,8.43, -0.02,0.15,-0.29
681,0.16,0.40,8.85, 0.04,0.21,-0.31
682,-0.62,2.73,9.32, -0.23,0.04,-0.38
683,0.57,2.02,8.89, -0.61,-0.05,-0.50
684,0.84,2.33,8.85, -0.68,-0.05,-0.36
685,0.34,2.20,9.12, -0.76,-0.09,-0.19
686,1.08,1.29,9.16, -0.63,-0.11,-0.04
687,0.43,2.48,9.74, -0.65,-0.19,0.07
688,0.46,2.19,9.39, -0.69,-0.34,0.13
689,1.12,2.26,9.41, -0.66,-0.34,0.13
690,1.45,1.11,9.22, -0.61,-0.35,0.28
691,1.12,-0.41,9.80, -0.28,-0.24,0.28
692,1.87,2.50,10.38, -0.29,-0.25,0.04
693,1.34,1.73,10.04, -0.44,-0.21,-0.13
694,1.78,1.23,9.78, -0.44,-0.12,-0.18
695,1.65,2.13,9.70, -0.44,-0.06,-0.10
696,1.39,0.89,9.76, -0.35,0.04,-0.15
697,1.16,0.81,10.02, -0.17,0.07,-0.31
698,1.14,1.31,9.99, -0.20,0.04,-0.29
699,0.80,0.82,10.07, -0.30,-0.02,-0.24
700,0.97,1.10,10.12, -0.41,-0.04,-0.23
701,0.95,1.24,10.11, -0.45,-0.01,-0.36
702,1.22,0.92,9.98, -0.37,0.06,-0.41
703,1.37,0.46,10.45, -0.15,0.15,-0.51
704,1.11,0.95,10.60, 0.02,0.13,-0.39
705,0.56,1.08,10.93, 0.01,0.06,-0.21
706,0.88,1.33,10.92, -0.12,-0.02,-0.18
707,0.75,0.80,11.10, -0.23,-0.08,-0.19
708,1.20,0.98,11.57, -0.21,-0.13,-0.23
709,1.30,1.07,11.98, -0.21,-0.22,-0.28
710,1.58,1.50,12.12, -0.27,-0.27,-0.36
711,1.30,1.07,11.89, -0.40,-0.25,-0.64
712,1.28,0.95,11.74, -0.41,-0.22,-0.67
713,1.11,1.23,11.24, -0.37,-0.21,-0.60
714,1.33,0.61,11.31, -0.24,-0.21,-0.60
715,1.15,0.84,11.65, -0.16,-0.21,-0.48
716,1.33,0.93,11.77, -0.12,-0.24,-0.44
717,1.27,0.79,11.69, -0.08,-0.17,-0.50
718,1.30,0.53,11.51, -0.03,-0.08,-0.60
719,0.73,0.42,11.34, -0.01,-0.04,-0.70
720,0.62,0.14,11.18, 0.00,-0.06,-0.74
721,0.21,0.44,11.12, 0.01,-0.11,-0.73
722,0.43,0.11,10.95, 0.05,-0.14,-0.62
723,0.46,0.14,10.86, 0.16,-0.10,-0.51
724,0.11,0.18,10.83, 0.25,-0.08,-0.44
725,0.75,0.05,10.91, 0.31,0.02,-0.50
726,0.32,-0.18,10.86, 0.32,0.07,-0.55
727,0.15,-0.05,10.86, 0.31,0.05,-0.51
728,-0.08,-0.11,10.77, 0.23,-0.02,-0.43
729,0.06,0.48,10.67, 0.12,-0.09,-0.29
730,0.19,0.37,10.64, 0.13,-0.13,-0.17
731,0.69,0.19,10.85, 0.21,-0.07,-0.13
732,0.60,0.24,10.82, 0.25,0.01,-0.17
733,0.20,0.29,11.06, 0.18,-0.03,-0.17
734,0.28,0.78,10.92, 0.01,-0.11,-0.10
735,0.24,1.66,10.89, -0.19,-0.19,0.01
736,-0.08,2.31,11.73, -0.49,-0.34,0.34
737,1.35,0.93,11.82, -0.48,-0.35,0.09
738,0.87,1.89,11.62, -0.35,-0.32,-0.02
739,0.82,1.65,11.63, -0.16,-0.35,0.12
740,1.01,1.73,11.14, 0.01,-0.30,0.23
741,1.20,1.11,11.14, 0.16,-0.16,0.16
742,0.51,1.71,11.17, 0.22,-0.09,0.18
743,0.92,0.97,10.69, 0.27,-0.03,0.05
744,0.46,1.07,10.59, 0.31,0.01,-0.06
745,0.35,1.61,10.67, 0.17,0.03,-0.04
746,0.59,1.16,10.42, 0.05,0.11,-0.06
747,0.79,1.40,10.69, -0.02,0.19,-0.11
748,1.30,1.74,10.54, -0.12,0.30,-0.23
749,0.93,1.13,10.41, -0.10,0.36,-0.30
750,0.91,1.08,10.36, -0.07,0.42,-0.28
751,0.83,1.28,10.41, -0.04,0.45,-0.23
752,1.06,1.43,10.73, -0.04,0.46,-0.26
753,0.81,1.41,10.54, -0.08,0.39,-0.28
754,1.21,1.10,10.31, -0.08,0.36,-0.38
755,0.42,1.24,10.44, -0.03,0.25,-0.38
756,0.63,1.70,10.68, -0.03,0.14,-0.24
757,0.68,1.36,10.46, -0.01,0.04,-0.02
758,1.04,1.24,10.46, 0.01,0.01,0.07
759,0.65,1.51,10.58, -0.03,-0.04,0.02
760,0.73,1.69,10.57, -0.12,-0.06,-0.07
761,0.68,1.42,10.36, -0.10,-0.10,-0.04
762,0.60,1.42,10.24, -0.04,-0.10,0.02
763,1.19,1.81,10.48, -0.02,-0.08,0.10
764,0.48,2.09,10.59, -0.08,-0.06,0.07
765,1.16,1.91,10.60, -0.13,-0.03,0.03
766,0.80,1.62,10.58, -0.10,-0.01,-0.05
767,0.68,1.88,10.47, -0.09,-0.02,-0.05
768,0.52,1.70,10.41, -0.09,-0.06,-0.02
769,0.68,1.70,10.52, -0.09,-0.08,0.11
770,0.80,1.38,10.59, -0.08,-0.08,0.14
771,0.73,2.14,10.70, -0.12,-0.03,0.07
772,0.84,1.84,10.56, -0.19,0.03,-0.10
773,0.74,1.65,10.43, -0.16,0.04,-0.12
774,0.52,1.30,10.40, -0.11,-0.02,0.01
775,0.53,1.47,10.49, -0.08,-0.09,0.13
776,0.48,1.50,10.59, -0.11,-0.10,0.16
777,0.83,1.82,10.56, -0.17,-0.02,0.01
778,0.97,1.79,10.68, -0.20,0.04,-0.06
779,0.87,1.70,10.81, -0.16,0.04,-0.04
780,0.74,1.63,10.75, -0.09,-0.05,0.06
781,0.66,1.63,10.67, -0.04,-0.12,0.15
782,0.46,1.71,10.76, -0.04,-0.16,0.22
783,0.44,1.77,10.79, -0.08,-0.19,0.23
784,0.76,1.57,10.68, -0.10,-0.13,0.17
785,0.78,1.58,10.75, -0.09,-0.04,0.05
786,0.81,1.57,10.58, -0.06,0.02,0.07
787,0.70,1.41,10.64, -0.02,0.01,0.13
788,0.57,1.57,10.67, -0.03,-0.04,0.20
789,0.68,1.63,10.86, -0.08,-0.08,0.17
790,0.49,1.92,10.87, -0.16,-0.11,0.11
791,0.76,1.69,10.78, -0.18,-0.05,0.03
792,0.92,1.81,10.71, -0.17,0.01,-0.01
793,0.94,1.55,10.74, -0.09,0.09,-0.01
794,0.77,1.74,10.88, -0.08,0.07,0.01
795,0.70,1.93,11.14, -0.08,-0.01,0.05
796,0.71,2.03,11.30, -0.08,-0.09,0.14
797,0.78,2.02,11.16, -0.07,-0.11,0.11
798,0.85,1.70,10.77, 0.00,-0.07,0.06
799,0.67,1.61,10.70, 0.06,-0.00,0.06
800,0.70,1.67,10.65, 0.05,0.04,0.07
801,0.78,1.56,10.61, 0.06,0.05,0.05
802,0.72,1.52,10.74, 0.03,0.05,0.04
803,0.65,1.91,10.81, -0.06,0.02,0.04
804,0.88,1.40,10.52, -0.09,-0.01,0.05
805,0.85,1.73,10.53, -0.06,-0.03,0.08
806,0.72,1.73,10.56, -0.06,-0.07,0.12
807,0.64,1.87,10.69, -0.09,-0.12,0.15
808,0.92,1.97,10.76, -0.08,-0.10,0.11
809,0.92,1.82,10.54, -0.03,-0.06,0.09
810,0.82,1.57,10.69, 0.05,-0.00,0.06
811,0.75,1.81,10.64, 0.03,0.02,0.07
812,0.75,1.61,10.44, -0.03,0.05,0.00
813,0.79,1.60,10.37, -0.08,0.06,-0.01
814,0.85,1.69,10.38, -0.08,0.05,0.04
815,0.76,1.66,10.46, -0.05,0.02,0.05
816,0.83,1.75,10.42, -0.04,0.01,0.06
817,0.95,1.66,10.61, -0.06,-0.01,0.09
818,0.77,2.09,10.69, -0.12,-0.04,0.07
819,1.04,1.86,10.57, -0.10,-0.03,0.04
820,1.01,1.72,10.39, -0.00,-0.01,0.03
821,0.87,1.64,10.40, 0.07,0.01,0.05
822,0.70,1.67,10.50, 0.06,-0.01,0.04
823,0.67,1.62,10.44, -0.02,-0.01,0.07
824,0.66,1.43,10.33, -0.10,0.00,0.04
825,0.70,1.64,10.30, -0.15,0.03,-0.01
826,0.86,1.72,10.40, -0.16,0.03,0.03
827,0.68,1.90,10.48, -0.17,0.02,0.10
828,0.71,2.03,10.70, -0.09,-0.04,0.13
829,0.84,1.64,10.57, -0.05,-0.04,0.13
830,0.63,1.87,10.70, -0.06,-0.04,0.11
831,0.64,1.74,10.63, -0.07,-0.06,0.10
832,0.78,1.93,10.67, -0.08,-0.07,0.09
833,0.74,1.81,10.75, -0.07,-0.02,0.06
834,0.68,1.84,10.63, -0.02,0.01,0.07
835,0.74,1.66,10.51, 0.05,0.06,0.09
836,0.88,1.74,10.48, 0.04,0.12,0.02
837,0.65,1.72,10.52, -0.08,0.12,-0.02
838,0.80,1.57,10.61, -0.14,0.09,0.00
839,0.93,1.93,10.55, -0.15,0.08,0.00
840,0.83,1.58,10.37, -0.11,0.08,0.02
841,0.72,1.88,10.60, -0.12,0.02,0.08
842,0.79,1.87,10.80, -0.12,-0.08,0.11
843,1.13,1.83,10.69, -0.10,-0.11,0.13
844,0.84,1.92,10.75, -0.11,-0.11,0.12
845,0.79,1.78,10.62, -0.11,-0.10,0.07
846,1.03,1.88,10.70, -0.12,-0.06,-0.03
847,0.69,2.13,10.79, -0.13,-0.01,0.07
848,0.77,1.76,10.52, -0.01,-0.02,0.07
849,0.69,1.72,10.51, 0.07,-0.01,0.07
850,0.70,1.67,10.57, 0.07,0.03,0.01
851,0.78,1.27,10.47, 0.01,0.06,-0.02
852,0.68,1.72,10.54, -0.07,0.08,-0.06
853,0.70,1.39,10.30, -0.13,0.07,-0.11
854,0.55,1.78,10.63, -0.18,0.06,-0.07
855,0.82,1.50,10.55, -0.19,0.03,-0.05
856,0.71,1.69,10.60, -0.12,-0.02,0.06
857,0.99,1.49,10.84, -0.09,-0.06,0.11
858,0.78,1.65,10.76, -0.12,0.02,0.10
859,0.56,1.85,10.62, -0.18,0.02,-0.11
860,0.43,1.53,10.48, -0.19,-0.03,-0.16
861,0.51,1.31,10.56, -0.13,-0.03,-0.13
862,0.77,1.83,10.67, -0.08,-0.05,-0.10
863,0.80,1.93,10.69, -0.10,0.02,0.03
864,0.89,1.46,10.51, -0.02,0.07,0.06
865,0.70,1.65,10.79, 0.02,0.06,0.12
866,0.78,1.70,10.95, -0.03,0.04,0.06
867,0.80,1.64,10.89, -0.11,0.04,-0.08
868,0.84,1.58,10.69, -0.10,0.03,-0.05
869,0.82,1.69,10.73, -0.11,0.00,-0.01
870,0.46,1.47,10.70, -0.12,-0.04,0.02
871,0.58,1.74,10.76, -0.15,-0.07,0.06
872,0.69,1.48,10.85, -0.12,-0.10,0.00
873,0.64,1.62,10.65, -0.09,-0.11,0.07
874,0.68,1.46,10.70, -0.02,-0.08,0.05
875,0.58,1.70,10.98, -0.05,-0.06,0.06
876,0.66,1.52,10.75, -0.13,-0.03,-0.07
877,0.51,1.73,10.63, -0.18,0.02,-0.03
878,0.69,1.39,10.46, -0.13,0.04,-0.01
879,0.74,1.54,10.73, -0.06,0.01,0.00
880,0.39,1.71,11.09, -0.08,-0.06,-0.03
881,0.68,1.37,10.60, -0.04,-0.12,0.08
882,0.61,1.58,10.69, 0.01,-0.08,0.04
883,0.62,1.81,10.91, -0.04,-0.03,0.07
884,0.67,1.44,10.71, -0.05,0.01,-0.02
885,0.56,1.53,10.77, -0.06,0.03,-0.09
886,0.58,1.48,10.65, -0.06,-0.01,0.04
887,0.57,1.63,10.58, -0.06,-0.06,0.02
888,0.54,1.58,10.55, -0.05,-0.05,0.04
889,0.66,1.70,10.48, -0.05,0.01,0.02
890,0.65,1.50,10.54, -0.03,0.05,-0.00
891,0.65,1.57,10.59, -0.04,0.06,-0.02
892,0.58,1.47,10.53, -0.10,0.02,-0.02
893,0.59,1.49,10.54, -0.13,-0.04,0.03
894,0.79,1.85,10.61, -0.07,-0.06,0.10
895,0.78,1.70,10.63, -0.01,-0.04,0.07
896,0.67,1.68,10.58, -0.01,0.01,0.07
897,0.65,1.74,10.77, -0.08,0.03,0.03
898,0.71,1.42,10.52, -0.08,0.04,-0.02
899,0.55,1.43,10.39, -0.04,0.02,0.02
900,0.59,1.61,10.52, -0.05,0.01,0.02
901,0.51,1.53,10.59, -0.10,0.01,-0.03
902,0.80,1.41,10.52, -0.10,-0.00,-0.03
903,0.58,1.72,10.30, -0.08,-0.00,-0.02
904,0.84,3.02,10.25, -0.17,0.03,0.12
905,-0.14,6.79,7.70, -0.69,0.15,0.49
906,-0.78,1.75,0.66, -0.81,0.00,0.25
907,-0.01,0.74,1.00, -0.81,0.01,0.21
908,0.01,0.51,0.89, -0.81,0.02,0.22
909,0.05,0.01,0.87, -0.80,0.03,0.23
910,0.00,0.04,0.95, -0.81,0.04,0.21
911,-0.05,0.14,0.95, -0.80,0.05,0.20
912,-0.15,0.30,0.89, -0.81,0.06,0.19
913,-0.09,0.25,0.89, -0.80,0.07,0.20
914,-0.03,0.19,0.91, -0.80,0.08,0.20
915,-0.01,0.12,0.91, -0.80,0.08,0.20
916,-0.12,0.16,0.86, -0.79,0.09,0.20
917,-0.14,0.13,0.89, -0.79,0.10,0.21
918,-0.01,0.12,0.96, -0.79,0.10,0.21
919,-0.10,0.15,0.93, -0.78,0.11,0.22
920,-0.02,0.18,0.96, -0.78,0.12,0.24
921,-0.10,0.18,0.97, -0.78,0.13,0.26
922,-0.07,0.13,1.00, -0.79,0.14,0.28
923,-0.06,0.16,0.96, -0.79,0.15,0.31
924,-0.15,0.07,0.99, -0.79,0.16,0.35
925,-0.04,0.08,1.02, -0.80,0.17,0.39
926,-0.08,0.17,1.07, -0.81,0.19,0.44
927,-0.01,0.10,1.04, -0.82,0.20,0.50
928,-0.07,0.06,1.06, -0.83,0.22,0.56
929,-0.04,0.05,1.04, -0.84,0.24,0.63
930,-0.13,0.04,1.14, -0.85,0.26,0.71
931,-0.11,0.02,1.12, -0.87,0.28,0.81
932,-0.10,0.01,1.10, -0.89,0.32,0.92
933,-0.07,-0.05,1.11, -0.91,0.35,1.03
934,-0.12,-0.06,1.25, -0.93,0.40,1.19
935,-0.06,-0.11,1.13, -0.95,0.44,1.35
936,-0.13,-0.06,1.09, -0.98,0.49,1.52
937,-0.13,-0.13,1.20, -1.01,0.55,1.71
938,-0.17,-0.19,1.23, -1.04,0.63,1.92
939,-0.22,-0.21,1.23, -1.07,0.70,2.16
940,0.01,-0.42,1.26, -1.08,0.78,2.43
941,-0.30,-0.33,1.29, -1.07,0.91,2.71
942,-0.25,-0.58,1.43, -1.06,1.02,3.01
943,-0.59,-0.61,1.40, -1.00,1.15,3.34
944,-0.77,-1.91,1.54, -0.93,1.23,3.61
945,-1.97,0.14,1.47, -0.78,1.35,3.95
946,-1.24,-0.31,1.42, -0.74,1.34,4.31
947,-1.32,-0.69,1.57, -0.52,1.47,4.82
948,-2.28,0.14,1.66, -0.44,1.50,5.08
949,-1.88,0.01,1.60, -0.30,1.56,5.35
950,-2.57,0.42,1.66, -0.14,1.56,5.58
951,-2.22,1.16,1.74, -0.10,1.48,5.69
952,-2.44,-0.00,1.55, -0.01,1.50,5.93
953,-2.49,1.56,1.65, 0.15,1.47,6.04
954,-2.65,1.30,1.50, 0.19,1.50,5.91
955,-3.63,2.58,1.47, 0.27,1.47,5.74
956,-2.35,2.83,1.60, 0.21,1.47,5.24
957,-3.32,2.69,1.48, 0.26,1.50,4.99
958,-3.14,3.14,1.42, 0.23,1.52,4.48
959,-3.82,2.24,1.36, 0.29,1.50,4.20
960,-3.58,1.99,1.27, 0.35,1.48,3.72
961,-3.42,3.27,1.46, 0.39,1.36,3.04
962,-3.21,3.73,1.43, 0.36,1.29,2.30
963,-2.81,3.84,1.41, 0.26,1.25,1.47
964,-2.84,3.95,1.32, 0.11,1.27,0.60
965,78.45,78.45,78.45, 8.73,8.73,-8.73
966,22.53,-2.68,2.89, -7.29,-8.73,-6.23
967,-6.54,-5.37,-8.10, -8.73,-8.73,2.69
968,-5.34,-2.99,-33.73, -8.73,-8.73,0.88
969,-9.29,-16.21,-42.66, -8.73,-8.73,0.08
970,-11.35,-12.06,-45.09, -8.73,-8.73,4.97
971,-5.03,-11.56,-39.82, -8.73,-8.73,8.73
972,-1.41,-3.55,-36.61, -8.73,-3.27,8.73
973,-5.57,2.01,-39.65, -8.73,4.43,8.73
974,-22.19,-17.41,-38.24, -8.73,8.73,8.73
975,-10.09,-32.99,-23.80, -8.73,8.73,8.73
976,-30.41,-32.01,-13.73, -2.09,4.17,8.73
977,-12.31,-5.15,-35.83, 1.99,4.39,8.73
978,-6.34,1.60,0.32, 2.61,4.84,8.03
979,-61.35,-4.11,6.51, 2.96,-2.81,7.59
980,-42.39,9.06,-4.60, 1.73,-8.73,6.03
981,-18.10,19.39,-9.79, -1.21,-8.73,4.58
982,-5.04,1.17,-16.95, -3.07,-8.73,4.42
983,-2.70,1.20,-16.41, -4.20,-8.73,4.46
984,-1.48,1.67,-16.39, -5.35,-8.73,4.45
985,31.79,-37.19,-48.29, 8.73,5.97,-8.73
986,-0.51,-15.33,-26.40, 8.07,8.73,-8.73
987,1.97,-9.91,-26.93, 0.44,8.73,-8.73
988,4.21,-9.12,-26.09, -7.51,8.73,-8.73
989,9.10,-5.05,-26.29, -8.73,8.73,-8.73
990,8.42,-0.07,-25.34, -8.73,5.08,-8.73
991,8.91,5.05,-25.15, -8.73,-3.68,-8.73
992,6.68,9.07,-25.04, -8.73,-8.73,-8.73
993,-78.45,-54.01,21.27, 0.12,8.73,-8.73
994,78.45,-3.55,-16.61, 2.60,3.43,-8.73
995,30.67,0.65,-0.34, 1.22,5.94,-8.73
996,16.23,-3.56,-0.44, -1.04,6.73,-8.73
997,2.33,-2.50,-1.31, -3.20,6.04,-8.73
998,3.66,-3.12,-1.24, -5.01,4.44,-8.73
999,5.05,-0.45,-1.02, -5.76,2.41,-8.73
1000,4.28,1.20,-1.00, -5.52,0.25,-8.73
1001,4.12,1.98,-0.92, -4.34,-1.54,-8.73
1002,2.91,2.30,-0.68, -2.47,-2.55,-8.73
1003,2.09,2.43,-0.56, -0.36,-2.53,-8.73
1004,45.01,21.84,21.99, -4.12,-1.89,-8.73
1005,35.43,-21.61,2.27, -8.73,-5.85,-0.53
1006,19.16,-15.83,-1.64, -8.01,-5.15,3.05
1007,-15.16,-4.13,-3.03, -6.66,-3.05,4.21
1008,6.71,-19.11,0.51, -5.08,-1.56,4.78
1009,8.37,-13.76,2.25, -2.68,-0.15,7.01
1010,-1.69,-2.80,11.04, -1.79,0.14,7.12
1011,19.19,-5.77,22.51, 1.04,4.76,8.73
1012,9.58,-11.84,2.54, 5.10,8.73,8.73
1013,2.49,-4.99,-12.26, 8.73,8.73,8.73
1014,-5.20,5.69,-17.90, 8.73,-8.73,8.73
1015,-18.74,71.80,-16.01, 6.64,-8.73,8.73
1016,20.31,-0.52,-15.73, -3.10,-8.73,0.35
1017,6.68,-1.57,-2.87, -0.18,-7.45,-8.18
1018,0.32,1.60,-2.94, 1.19,-6.52,-8.38
1019,1.03,0.66,-1.70, 2.69,-5.28,-8.39
1020,1.10,0.96,2.41, 4.21,-3.44,-8.40
1021,0.06,1.21,4.71, 5.58,-0.93,-8.39
1022,-1.77,2.32,1.41, 5.91,0.71,-8.04
1023,-6.39,3.66,0.73, 5.97,2.21,-6.65
1024,-40.36,33.01,4.26, 4.09,0.98,-2.65
1025,-3.75,7.30,-0.15, 0.58,-0.86,1.22
1026,-5.31,4.92,2.92, -0.11,0.00,-0.03
1027,-10.34,4.58,3.90, -0.62,0.09,-0.56
1028,-8.22,1.00,3.75, -0.34,0.25,-0.62
1029,-11.15,1.68,3.24, -0.04,-0.02,-0.28
1030,-9.23,2.37,3.40, -0.10,-0.03,0.13
1031,-9.22,3.17,3.39, -0.04,-0.06,0.28
1032,-9.13,3.34,3.49, -0.08,-0.04,0.10
1033,-9.05,3.17,3.48, -0.08,-0.00,-0.11
1034,-9.34,2.80,3.32, -0.08,-0.00,-0.11
1035,-9.37,2.67,3.40, -0.07,-0.02,0.03
1036,-9.27,2.93,3.33, -0.07,-0.03,0.09
1037,-9.12,3.08,3.45, -0.07,-0.02,-0.00
1038,-9.25,2.91,3.31, -0.07,-0.01,-0.05
1039,-9.22,2.79,3.42, -0.07,-0.02,0.01
1040,-9.29,2.89,3.43, -0.07,-0.02,0.04
1041,-9.24,2.99,3.42, -0.07,-0.02,0.01
1042,-9.23,2.97,3.46, -0.07,-0.02,-0.02
1043,-9.24,2.84,3.38, -0.07,-0.02,0.01
1044,-9.25,2.91,3.36, -0.07,-0.02,0.02
1045,-9.25,3.02,3.40, -0.07,-0.02,0.01
1046,-9.28,2.88,3.46, -0.07,-0.02,-0.01
1047,-9.22,2.95,3.39, -0.07,-0.02,0.01
1048,-9.27,2.96,3.34, -0.07,-0.02,0.01
1049,-9.28,2.90,3.43, -0.07,-0.02,0.00
1050,-9.25,2.90,3.40, -0.07,-0.02,0.00
1051,-9.23,2.90,3.48, -0.07,-0.02,0.01
1052,-9.24,2.99,3.35, -0.07,-0.03,0.01
1053,-9.28,3.01,3.47, -0.07,-0.02,0.00
1054,-9.29,2.91,3.32, -0.07,-0.02,0.01
1055,-9.22,2.96,3.41, -0.07,-0.02,0.01
1056,-9.24,2.99,3.48, -0.07,-0.02,0.01
1057,-9.23,2.96,3.40, -0.07,-0.02,0.01
1058,-9.28,2.88,3.39, -0.07,-0.02,0.01
1059,-11.54,-1.43,4.06, 0.36,-0.04,0.02
1060,-8.31,3.80,2.86, 0.11,-0.23,0.75
1061,-10.52,4.73,3.74, 0.08,-0.07,0.63
1062,-11.20,1.79,4.15, 0.36,0.04,0.29
1063,-9.16,7.36,3.24, 0.02,0.15,0.26
1064,-9.01,2.68,4.07, -0.13,0.11,-0.11
1065,-9.46,3.00,3.08, -0.03,0.14,-0.28
1066,-9.11,1.97,4.69, 0.00,0.05,-0.23
1067,-10.52,3.19,4.78, 0.77,0.08,0.27
1068,-17.22,0.93,4.58, 1.20,-0.17,-1.07
1069,-15.10,9.69,3.68, 0.58,-1.72,-2.64
1070,-14.67,5.97,7.88, 0.69,-1.78,-1.73
1071,-12.83,2.90,7.67, 0.75,-2.41,-1.72
1072,-11.40,2.93,4.69, 0.55,-2.95,-1.66
1073,-9.73,4.03,4.28, 0.72,-3.31,-1.47
1074,-8.14,2.21,1.31, 1.26,-3.17,-1.35
1075,-9.97,4.23,4.87, 1.68,-2.88,-1.23
1076,-10.36,5.88,9.40, 1.41,-2.47,-1.23
1077,-11.95,4.36,11.02, 1.07,-2.73,-1.16
1078,-12.97,1.56,8.56, 0.77,-3.32,-1.25
1079,-12.60,0.48,6.17, 1.19,-3.92,-1.71
1080,-8.53,3.99,4.74, 1.58,-3.84,-2.01
1081,-7.86,3.78,4.06, 1.67,-3.15,-1.95
1082,-6.65,4.35,5.31, 1.49,-2.26,-1.94
1083,-8.32,1.66,6.35, 1.44,-1.70,-2.19
1084,-9.46,1.02,8.78, 1.61,-1.65,-2.30
1085,-11.35,1.02,9.63, 2.12,-2.29,-2.82
1086,-4.63,5.36,8.49, 1.92,-2.39,-2.51
1087,-3.32,3.56,6.40, 1.27,-1.59,-2.04
1088,-5.30,2.68,8.49, 0.94,-0.83,-2.02
1089,-5.39,1.80,9.95, 0.90,-0.32,-2.30
1090,-4.69,3.37,11.97, 0.87,-0.16,-2.37
1091,-4.20,4.38,13.74, 0.74,-0.11,-2.46
1092,-1.56,7.14,14.77, 0.22,-0.02,-2.01
1093,-1.87,5.69,14.28, -0.19,0.04,-1.51
1094,-2.74,4.36,14.67, -0.20,-0.04,-1.33
1095,-2.24,4.51,13.99, -0.16,-0.26,-1.20
1096,-1.07,5.25,13.00, -0.27,-0.26,-0.94
1097,-1.29,4.61,13.19, -0.42,-0.15,-0.71
1098,-1.38,5.08,14.63, -0.62,-0.16,-0.43
1099,-1.64,6.06,15.56, -0.76,-0.46,-0.21
1100,-1.58,4.66,13.96, -0.79,-0.86,-0.31
1101,-1.00,3.82,11.35, -0.77,-0.88,-0.47
1102,-1.15,3.68,10.63, -0.71,-0.97,-0.41
1103,-1.02,3.14,10.20, -0.66,-0.99,-0.24
1104,-0.79,3.35,10.33, -0.70,-1.08,0.10
1105,-1.54,2.67,9.87, -0.59,-1.39,0.08
1106,-1.83,-1.65,10.37, -0.22,-1.89,-0.27
1107,-1.30,2.38,9.63, 0.03,-2.14,-0.49
1108,-2.37,-1.19,7.70, 0.24,-2.34,-0.71
1109,-0.23,-1.76,6.94, 0.63,-2.47,-0.47
1110,0.63,0.01,5.76, 0.79,-2.26,-0.18
1111,-0.22,-1.43,6.90, 0.79,-2.04,0.11
1112,-0.06,-0.66,7.43, 1.14,-2.10,0.21
1113,1.06,-0.86,7.78, 1.25,-2.00,0.12
1114,0.01,-1.96,8.45, 1.24,-1.65,0.08
1115,-0.01,-2.82,7.25, 1.13,-1.41,-0.13
1116,-1.10,-1.04,7.09, 0.83,-1.36,0.15
1117,-0.45,-0.50,7.86, 0.56,-1.59,0.48
1118,-0.92,-2.01,8.87, 0.28,-1.71,0.44
1119,-0.30,-1.90,8.34, 0.19,-1.52,0.20
1120,0.15,-1.25,8.24, 0.25,-1.19,0.26
1121,-0.19,-0.56,8.82, 0.32,-0.99,0.20
1122,0.09,-0.33,8.56, 0.46,-0.82,0.25
1123,0.18,0.13,9.09, 0.35,-0.60,0.40
1124,-0.48,-0.17,8.89, 0.30,-0.53,0.39
1125,0.29,1.72,8.86, 0.17,-0.44,0.52
1126,0.77,0.74,7.49, -0.08,-0.24,0.79
1127,-0.09,-1.48,13.86, 0.09,-0.32,0.80
1128,2.06,0.83,11.45, 0.08,-0.31,1.34
1129,-0.27,-0.59,9.62, 0.20,-0.17,1.16
1130,1.84,-1.07,11.35, 0.37,-0.29,0.28
1131,-4.84,-1.10,9.68, 0.33,-0.69,-1.84
1132,-0.37,1.27,10.14, 0.33,-1.40,-0.31
1133,9.09,1.96,10.71, 0.19,-0.92,0.19
1134,5.22,2.25,9.64, 0.01,-0.20,1.00
1135,1.30,0.03,9.01, 0.03,-0.20,1.25
1136,2.76,2.56,9.73, -0.08,-0.46,1.32
1137,1.68,2.94,9.73, -0.19,-0.41,1.21
1138,0.61,0.88,9.22, -0.30,-0.65,1.09
1139,2.89,2.21,10.07, -0.24,-0.60,1.33
1140,2.91,0.74,9.75, -0.24,-0.50,1.50
1141,2.79,0.55,9.64, -0.10,-0.50,1.58
1142,2.97,0.87,9.62, -0.04,-0.49,1.68
1143,3.29,0.87,9.34, -0.01,-0.58,1.78
1144,2.29,-0.71,9.58, 0.11,-0.77,1.69
1145,3.85,-1.08,8.96, 0.40,-0.88,1.58
1146,4.21,-0.48,8.91, 0.58,-0.90,1.43
1147,5.26,0.97,9.18, 0.72,-0.89,1.43
1148,4.55,3.37,10.07, 0.62,-0.85,1.44
1149,5.78,2.54,10.66, 0.29,-0.68,1.22
1150,4.30,0.66,9.12, 0.13,-0.61,1.03
1151,5.09,-1.57,8.81, 0.00,-0.86,0.97
1152,6.18,-1.83,9.12, 0.10,-0.92,0.80
1153,5.58,-2.43,8.78, 0.38,-0.90,0.66
1154,6.91,0.23,8.50, 0.41,-0.81,0.52
1155,9.18,0.15,8.99, 0.30,-0.48,0.38
1156,6.35,-0.61,6.82, 0.08,-0.45,0.32
1157,6.53,-2.14,7.69, -0.02,-0.26,0.43
1158,4.20,-1.93,6.46, 0.06,-0.49,0.48
1159,5.24,-1.14,6.91, 0.18,-0.63,0.39
1160,5.24,0.46,6.53, 0.23,-0.79,0.36
1161,7.11,-0.04,7.71, 0.21,-0.76,0.34
1162,8.13,-0.01,8.54, 0.27,-0.55,0.27
1163,9.22,0.11,9.48, 0.33,-0.31,0.20
1164,11.73,1.10,11.42, 0.22,0.05,0.25
1165,8.02,2.51,10.16, 0.08,0.37,0.25
