Step,AccX,AccY,AccZ,GyrX,GyrY,GyrZ
0,2.29,-3.96,9.92, 0.49,0.11,-0.65
1,1.91,-3.47,9.62, 0.55,0.19,-1.32
2,1.73,-0.65,10.55, 0.71,0.13,-1.92
3,0.37,1.88,11.43, 0.35,0.05,-1.27
4,1.87,0.86,11.93, -0.18,0.07,-0.52
5,1.43,-0.77,11.76, -0.64,0.03,0.25
6,-0.82,0.02,10.93, -0.84,-0.17,0.49
7,0.33,-1.19,9.43, -0.86,-0.33,0.21
8,0.65,-0.93,10.61, -0.89,-0.38,0.63
9,0.84,-3.38,8.61, -0.52,-0.29,0.48
10,1.73,-2.48,10.50, -0.05,0.20,0.10
11,2.87,-1.55,11.58, 0.13,0.57,0.05
12,2.20,-2.04,10.35, 0.06,0.59,0.05
13,1.21,-1.87,10.69, -0.45,0.30,0.82
14,-0.10,-1.51,10.69, -0.76,0.16,1.87
15,-0.23,-1.03,10.06, -1.36,0.06,1.78
16,-0.85,-1.01,8.36, -1.43,-0.24,2.40
17,-1.64,-2.92,6.59, -0.64,-0.56,2.04
18,0.28,-7.72,7.15, 0.47,-0.96,0.09
19,7.79,-6.57,16.59, 1.46,-0.09,-1.25
20,0.75,-3.55,11.36, 0.43,0.74,-1.32
21,0.00,-2.06,9.52, 0.08,0.84,-0.86
22,-0.78,-1.29,9.57, 0.15,0.51,-0.51
23,-0.04,-2.25,9.38, 0.17,-0.05,-0.43
24,0.08,-3.22,8.70, -0.02,-0.48,-0.79
25,3.90,0.71,14.55, 0.28,-0.04,-0.58
26,0.60,0.81,10.51, 0.37,0.22,0.37
27,-0.02,-2.20,9.13, 0.89,0.05,-0.65
28,0.01,-3.26,8.89, 1.13,0.11,-2.00
29,-2.04,-4.32,24.41, 0.91,-0.44,-2.10
30,-3.65,-1.08,10.22, 0.64,-0.47,0.23
31,0.91,0.19,10.24, 0.72,-0.64,-0.45
32,4.24,-0.93,11.90, 0.67,-0.45,-0.52
33,1.84,-1.26,11.74, 0.26,0.05,0.04
34,0.06,-1.91,11.00, -0.08,0.20,0.36
35,-1.52,-0.75,9.81, 0.01,-0.19,0.10
36,0.86,-0.34,10.13, 0.07,-0.34,-0.17
37,2.76,0.33,10.85, 0.12,-0.21,-0.44
38,1.76,-1.58,10.35, 0.03,-0.34,-0.06
39,0.68,-0.39,10.64, 0.08,-0.18,0.08
40,2.89,0.74,10.47, 0.05,-0.15,-0.07
41,1.40,-0.57,10.74, 0.04,0.05,0.04
42,0.52,-1.57,10.47, 0.09,0.01,0.15
43,2.98,0.28,11.22, 0.01,0.11,0.44
44,3.16,1.02,11.60, -0.21,0.43,0.01
45,0.38,-0.87,10.04, -0.13,0.46,-0.20
46,-0.60,0.16,9.50, -0.11,0.24,-0.69
47,1.89,-1.14,10.54, -0.03,0.20,-0.97
48,2.63,-0.50,11.27, 0.04,0.30,-0.36
49,1.88,-0.67,10.33, 0.09,0.47,0.48
50,-0.69,-1.30,10.22, -0.00,0.53,0.57
51,-4.32,1.24,10.36, 0.07,0.06,0.03
52,0.88,0.51,11.34, 0.16,-0.18,-0.35
53,2.12,-1.01,11.42, 0.09,0.11,0.26
54,0.47,-0.15,10.46, -0.16,0.20,0.62
55,-0.59,0.31,10.15, -0.11,-0.03,0.27
56,1.12,0.27,11.01, -0.00,-0.10,-0.02
57,0.10,-0.22,10.71, 0.06,-0.25,-0.12
58,2.07,-1.02,10.81, 0.10,-0.11,-0.14
59,1.42,-0.91,10.56, 0.21,0.12,0.09
60,0.92,-0.24,10.84, 0.17,0.20,0.51
61,2.65,-0.46,9.17, 0.36,0.12,1.81
62,3.06,-0.92,11.52, -0.04,0.08,1.37
63,-1.82,-0.14,10.10, -0.34,-0.25,1.36
64,2.58,0.47,11.65, -0.13,0.10,0.97
65,0.51,1.19,9.34, 0.26,-0.01,1.00
66,0.91,0.36,10.19, 0.03,-0.32,-0.37
67,0.55,-1.04,11.93, 0.14,-0.43,0.37
68,2.55,-0.30,10.77, -0.10,-0.02,0.78
69,1.38,-0.31,10.27, -0.19,0.13,0.61
70,1.91,2.07,10.67, -0.16,0.18,0.10
71,0.15,1.34,10.49, -0.26,-0.27,-0.31
72,1.11,-0.57,10.79, -0.25,-0.39,-0.25
73,1.55,-0.20,11.34, -0.13,-0.13,0.04
74,0.93,-0.42,10.65, -0.13,-0.02,0.38
75,1.10,-0.44,10.58, -0.13,-0.01,0.35
76,0.95,0.91,10.69, -0.20,-0.02,0.13
77,0.67,-0.36,10.63, -0.24,-0.02,-0.00
78,0.58,0.21,10.39, -0.24,-0.05,-0.30
79,4.37,3.44,12.38, -0.36,0.21,-0.32
80,0.31,-1.35,11.39, -0.30,-0.15,-0.07
81,1.05,-0.99,10.73, -0.23,0.01,0.46
82,1.68,0.53,10.98, -0.22,0.10,0.44
83,0.47,-1.07,10.62, -0.25,0.08,0.04
84,1.58,-0.29,11.16, -0.20,0.09,0.01
85,2.55,-1.29,10.47, -0.12,0.27,0.13
86,-0.30,-2.17,10.57, -0.04,0.20,0.57
87,0.16,-0.83,10.50, -0.10,0.14,0.37
88,0.47,-0.71,10.67, -0.05,0.09,0.03
89,0.69,0.06,10.83, -0.18,0.14,-0.38
90,0.07,-1.81,10.42, -0.14,0.14,-0.79
91,0.55,-0.99,10.66, -0.03,0.08,-0.71
92,-0.22,-0.62,10.77, 0.03,0.04,-0.99
93,0.49,-0.84,10.72, 0.17,-0.07,-0.94
94,1.40,1.61,11.07, -0.04,0.06,-0.96
95,0.40,-2.03,10.60, -0.07,0.06,-0.79
96,1.07,1.09,10.67, 0.02,0.02,0.05
97,-0.50,-1.08,10.54, 0.03,-0.07,0.15
98,0.65,0.40,10.77, -0.04,-0.13,0.09
99,0.34,-0.20,10.70, -0.05,-0.14,0.09
100,1.00,-0.45,10.75, -0.05,-0.15,0.05
101,1.06,-0.80,10.86, 0.01,-0.07,0.02
102,3.33,-0.80,11.68, 0.31,0.21,-1.25
103,1.70,7.73,10.86, 0.19,0.59,-2.69
104,-2.88,-2.53,10.10, 0.14,0.24,0.63
105,-0.00,0.04,10.47, 0.02,0.13,1.08
106,0.06,1.10,10.78, -0.03,-0.02,0.30
107,0.11,0.84,10.65, -0.15,-0.11,0.29
108,0.80,0.53,10.82, -0.21,-0.14,0.13
109,0.12,-0.31,10.72, -0.22,-0.17,-0.01
110,1.07,0.04,10.69, -0.22,-0.16,0.15
111,1.31,-0.18,10.72, -0.20,-0.11,0.27
112,1.21,-0.58,10.72, -0.15,-0.03,0.14
113,2.01,-0.74,10.86, -0.06,0.08,-0.25
114,1.52,-0.25,10.81, -0.01,0.25,-0.47
115,0.97,-0.82,10.68, 0.07,0.33,-0.41
116,-4.19,4.73,10.25, 0.02,0.07,-0.41
117,0.94,-0.08,11.31, -0.11,-0.27,0.72
118,0.51,0.51,10.62, -0.15,-0.20,0.07
119,0.49,-0.09,10.59, -0.22,-0.19,-0.17
120,0.99,-0.31,10.78, -0.14,-0.08,0.00
121,0.23,-0.60,11.25, -0.21,0.06,-0.37
122,-0.37,-1.23,10.40, -0.04,-0.08,-0.53
123,-0.33,-0.60,10.12, -0.06,-0.01,-0.35
124,0.54,-0.66,10.94, 0.01,0.04,-0.34
125,-0.76,0.83,10.74, -0.11,0.00,-0.14
126,-0.45,1.47,10.60, -0.23,-0.10,0.77
127,-0.33,-0.10,10.64, -0.32,-0.33,1.01
128,1.30,-0.44,10.53, -0.30,-0.31,0.73
129,2.57,-1.75,10.98, -0.18,-0.25,0.66
130,-2.50,-0.39,9.95, -0.21,-0.18,0.56
131,0.82,-0.85,10.74, -0.12,-0.43,-0.09
132,0.67,-0.17,10.70, -0.11,-0.38,-0.05
133,1.67,-0.64,10.58, -0.04,-0.31,-0.04
134,4.84,0.44,10.21, -0.06,-0.15,-0.09
135,1.24,-1.31,10.36, 0.01,-0.05,-0.03
136,1.48,-0.71,10.64, 0.08,0.03,-0.06
137,1.38,0.72,11.22, 0.04,0.01,-0.01
138,0.96,0.06,10.64, -0.03,-0.01,0.00
139,1.23,-0.00,10.66, -0.08,0.00,0.00
140,1.18,-0.33,10.62, -0.09,-0.00,0.00
141,1.53,-0.39,10.56, -0.11,0.02,0.01
142,1.33,-0.10,10.56, -0.11,0.03,0.04
143,0.85,-0.30,10.68, -0.10,0.03,0.01
144,0.88,-0.43,10.67, -0.08,0.00,0.01
145,0.90,-0.43,10.70, -0.06,-0.03,0.00
146,1.00,-0.38,10.64, -0.05,-0.06,-0.00
147,1.16,-0.31,10.59, -0.05,-0.08,-0.01
148,1.25,-0.27,10.58, -0.06,-0.04,-0.00
149,1.30,-0.22,10.62, -0.07,-0.02,-0.00
150,1.13,-0.27,10.66, -0.07,-0.03,-0.00
151,1.14,-0.28,10.64, -0.07,-0.02,0.00
152,1.12,-0.32,10.66, -0.07,-0.02,-0.00
153,1.31,-0.09,10.70, -0.08,-0.01,-0.00
154,1.24,-0.28,10.69, -0.09,0.00,0.00
155,1.19,-0.21,10.77, -0.09,-0.00,-0.00
156,1.09,-0.39,10.71, -0.08,-0.01,0.00
157,1.19,-0.37,10.59, -0.07,-0.01,0.00
158,1.16,-0.23,10.67, -0.06,-0.01,0.00
159,1.21,-0.32,10.60, -0.07,-0.02,-0.00
160,1.11,-0.23,10.68, -0.07,-0.02,0.00
161,1.05,-0.34,10.61, -0.07,-0.01,0.00
162,1.15,-0.23,10.59, -0.07,-0.01,0.00
163,1.22,-0.32,10.62, -0.07,-0.01,0.01
164,1.03,-0.29,10.65, -0.08,-0.01,0.03
165,1.24,-0.44,10.66, -0.07,-0.01,0.04
166,1.24,-0.33,10.64, -0.06,-0.01,0.06
167,1.17,-0.35,10.73, -0.07,-0.00,0.05
168,1.10,-0.24,10.62, -0.08,0.00,0.02
169,1.03,-0.20,10.69, -0.09,-0.01,0.01
170,1.07,-0.28,10.74, -0.08,-0.01,0.01
171,1.15,-0.26,10.70, -0.08,-0.01,-0.00
172,1.13,-0.29,10.70, -0.08,-0.02,0.00
173,1.32,-0.17,10.46, -0.08,0.04,-0.03
174,2.50,-0.22,10.71, -0.06,-0.02,0.02
175,0.26,-0.40,10.74, -0.06,-0.03,0.01
176,1.11,-0.15,10.64, -0.06,-0.04,0.00
177,1.31,-0.34,10.64, -0.06,-0.04,-0.00
178,1.10,-0.34,10.65, -0.05,-0.04,-0.00
179,1.24,-0.30,10.62, -0.05,-0.04,-0.00
180,1.24,-0.22,10.62, -0.05,-0.03,-0.00
181,1.16,-0.21,10.67, -0.05,-0.01,-0.00
182,1.30,-0.24,10.70, -0.08,-0.01,-0.00
183,1.18,-0.20,10.69, -0.09,-0.00,-0.00
184,1.21,-0.21,10.62, -0.10,0.01,0.01
185,1.15,-0.35,10.54, -0.09,0.01,0.01
186,-11.50,-0.56,9.57, -0.04,-0.20,0.15
187,-0.96,-1.24,10.60, -0.06,-0.05,-0.00
188,1.28,-0.41,10.72, -0.07,-0.02,0.00
189,1.36,-0.26,10.69, -0.05,-0.01,-0.00
190,0.83,-0.34,10.62, -0.04,-0.05,-0.00
191,1.13,-0.40,10.69, -0.03,-0.07,-0.00
192,1.19,-0.06,10.55, -0.03,-0.06,-0.01
193,1.56,0.09,10.83, -0.08,-0.04,0.01
194,1.50,-0.27,10.60, -0.06,-0.02,0.02
195,6.57,-1.13,11.21, -0.03,0.24,-0.94
196,-1.57,-0.33,11.38, -0.07,-0.09,-0.26
197,1.33,-0.11,10.52, -0.06,-0.01,-0.22
198,0.98,-0.59,10.69, -0.06,0.02,-0.19
199,0.97,-0.19,10.53, -0.04,0.02,0.19
200,1.34,-0.13,10.62, -0.04,-0.03,-0.18
201,-0.27,-0.27,10.56, -0.06,-0.11,0.15
202,0.40,-0.78,10.58, -0.16,-0.15,0.84
203,2.19,0.02,10.73, -0.07,-0.15,0.00
204,0.73,-1.41,10.28, -0.01,-0.14,-0.16
205,1.56,-0.13,10.37, -0.09,-0.07,-0.44
206,1.57,1.24,10.79, -0.10,0.01,-0.39
207,2.03,-0.85,10.70, -0.10,0.11,-0.20
208,2.88,-2.09,10.45, -0.04,0.19,-0.39
209,1.68,0.34,10.54, 0.07,0.22,-1.54
210,-0.91,0.64,10.53, -0.07,0.17,-0.03
211,-0.47,1.07,10.24, -0.30,-0.12,1.11
212,-1.34,0.10,10.22, -0.36,-0.38,1.03
213,2.18,3.57,12.99, 0.06,-0.53,1.90
214,2.19,-0.06,10.61, -0.22,-0.60,2.05
215,0.44,-1.89,10.44, -0.31,-0.40,1.24
216,-1.58,-4.30,9.67, -0.27,-0.05,0.05
217,0.97,-3.58,9.85, -0.22,0.27,-1.43
218,2.82,-0.78,10.54, -0.14,0.55,-1.87
219,2.31,0.00,10.77, 0.15,0.46,-1.25
220,3.57,0.74,13.65, 0.42,0.19,-0.05
221,-0.21,0.20,10.26, 0.21,-0.01,-0.77
222,-0.28,0.32,10.73, 0.12,-0.09,-0.06
223,-1.41,-0.67,10.41, 0.02,-0.20,0.03
224,1.81,0.70,10.47, -0.14,-0.27,0.18
225,2.92,-0.02,10.14, -0.22,0.01,0.10
226,0.08,0.34,10.62, -0.20,0.09,-0.02
227,1.54,-0.63,10.73, -0.15,0.02,0.01
228,0.77,-0.11,10.68, -0.10,0.04,0.01
229,-0.05,-0.27,10.58, -0.12,-0.11,0.09
230,3.20,-0.59,10.80, -0.12,-0.05,0.01
231,-0.08,0.66,10.25, -0.06,-0.47,0.52
232,2.71,0.68,10.74, -0.03,-0.23,1.21
233,3.51,-2.39,9.56, -0.06,0.08,0.70
234,1.75,-2.83,11.39, -0.03,0.28,-0.28
235,-3.74,7.90,9.36, 0.15,0.03,-2.06
236,0.37,-0.89,10.60, 0.03,0.06,-0.88
237,2.09,-0.28,10.41, -0.10,0.06,-0.34
238,0.40,-0.36,10.54, -0.11,0.06,-0.77
239,2.33,0.08,10.86, -0.05,0.12,-0.61
240,2.30,-0.06,11.02, 0.05,0.25,-0.82
241,2.06,-0.45,10.81, 0.08,0.40,-0.37
242,-0.52,0.28,10.55, 0.08,0.27,-0.14
243,-0.12,1.20,10.64, -0.10,0.10,0.58
244,1.09,-0.07,10.72, -0.16,0.04,0.58
245,-0.33,1.43,10.71, -0.31,-0.36,0.67
246,-0.19,0.92,10.56, -0.50,-0.51,1.21
247,3.99,-1.53,11.04, -0.38,-0.52,0.38
248,1.81,-0.99,10.00, -0.12,0.03,0.04
249,3.71,1.24,10.40, 0.10,0.14,-0.32
250,3.00,1.80,11.53, 0.05,-0.09,-1.09
251,2.31,1.32,10.57, -0.11,-0.12,0.07
252,-0.26,0.50,10.49, -0.15,-0.21,-0.03
253,2.57,0.07,11.01, -0.16,-0.18,0.09
254,0.97,-0.07,10.42, -0.08,-0.05,0.15
255,2.57,-0.95,10.58, -0.07,0.06,0.03
256,7.96,-1.60,10.66, 0.06,0.62,-0.51
257,3.11,-2.75,10.97, 0.26,0.92,-2.13
258,-4.50,1.98,10.25, 0.26,0.40,-0.44
259,0.02,0.68,10.55, 0.04,0.17,0.34
260,0.25,1.48,10.62, -0.14,-0.01,0.49
261,0.47,1.32,10.57, -0.39,-0.17,0.77
262,0.72,-0.30,10.57, -0.44,-0.19,0.83
263,0.45,-2.14,10.23, -0.27,-0.25,0.12
264,-2.25,-1.17,10.51, -0.12,-0.27,0.22
265,3.04,-0.30,10.94, -0.06,-0.08,0.01
266,-0.57,-1.06,10.20, 0.11,-0.06,-0.64
267,-2.06,-0.06,10.24, -0.08,-0.18,0.05
268,1.12,-0.07,10.30, -0.03,-0.21,-0.05
269,1.74,-0.43,10.37, 0.02,-0.31,-0.19
270,3.83,-0.35,11.03, -0.02,-0.30,0.05
271,1.99,0.24,10.64, -0.01,-0.23,0.14
272,2.49,0.07,10.68, -0.07,-0.11,0.05
273,2.98,-0.58,10.57, -0.06,0.09,-0.04
274,3.46,-1.75,9.88, 0.24,0.69,-0.97
275,-1.37,0.13,10.34, 0.22,0.45,-1.25
276,-2.43,2.54,10.64, -0.09,-0.10,0.26
277,1.44,1.28,10.79, -0.27,-0.32,0.77
278,2.13,1.52,10.40, -0.51,-0.24,1.34
279,0.99,-5.24,11.67, -0.41,-0.73,0.58
280,-2.81,1.07,11.29, -0.12,-0.39,1.14
281,1.87,-3.27,9.73, -0.12,-0.13,0.35
282,2.99,-2.70,9.39, -0.02,0.38,-0.74
283,-0.28,9.82,11.75, 0.16,0.16,-0.19
284,-2.22,1.13,10.63, -0.06,-0.16,-0.03
285,2.90,0.07,10.86, -0.00,0.16,-0.10
286,0.29,0.45,10.62, -0.13,-0.03,-0.09
287,1.13,-0.61,10.70, -0.15,-0.16,0.04
288,2.00,-0.63,10.69, -0.09,-0.07,-0.03
289,1.35,0.03,10.52, -0.09,-0.02,0.00
290,2.88,-0.33,10.55, -0.10,0.10,-0.01
291,0.79,-0.20,10.46, -0.06,0.29,-0.05
292,0.06,-0.11,10.75, -0.03,0.18,-0.01
293,0.31,0.54,10.69, -0.02,0.06,0.03
294,0.76,0.40,10.74, -0.10,0.04,0.01
295,-0.44,0.68,10.41, -0.19,-0.11,0.06
296,2.60,-0.41,10.14, -0.25,-0.30,0.11
297,2.60,-1.25,10.51, -0.18,-0.06,0.08
298,1.79,-1.78,10.26, -0.03,0.15,-0.02
299,0.77,1.36,11.07, 0.12,0.14,-0.88
300,-4.92,0.71,10.44, 0.12,-0.14,-0.79
301,-1.34,1.48,10.22, -0.08,-0.21,0.15
302,3.67,-0.52,10.69, -0.13,-0.05,0.00
303,-0.75,0.16,10.69, -0.23,-0.12,0.04
304,2.15,-0.77,10.80, -0.12,-0.16,0.02
305,1.67,-0.35,10.40, -0.07,-0.03,-0.03
306,2.46,-0.34,10.56, -0.06,0.10,-0.04
307,1.84,-0.05,10.66, -0.08,0.20,-0.07
308,0.66,-0.08,10.63, -0.08,0.14,0.00
309,-0.35,0.34,10.65, -0.13,-0.10,0.17
310,0.83,0.45,10.70, -0.16,-0.06,0.03
311,1.48,1.86,10.81, -0.13,-0.11,0.44
312,1.61,0.77,10.48, -0.05,-0.22,1.35
313,2.03,-2.64,10.69, -0.11,0.01,0.83
314,0.89,-4.25,10.17, 0.21,0.33,-0.27
315,0.05,3.28,12.45, 0.16,0.26,-1.38
316,-1.29,0.94,10.69, 0.01,-0.06,0.03
317,-0.43,-0.56,10.53, 0.04,-0.22,-0.12
318,2.09,1.61,12.26, -0.07,-0.46,-0.01
319,2.56,0.10,10.72, -0.15,-0.32,0.05
320,2.66,-0.61,10.53, -0.12,-0.21,0.17
321,2.42,-0.39,11.15, -0.13,-0.11,0.12
322,0.34,0.03,10.87, -0.05,-0.13,0.39
323,3.24,1.81,9.98, 0.11,-0.12,1.10
324,5.49,-2.49,10.06, -0.14,0.14,0.13
325,1.71,-0.40,10.82, -0.06,0.19,-0.10
326,1.86,0.50,12.09, -0.04,0.39,-0.58
327,1.60,0.51,10.64, 0.03,0.14,-0.98
328,0.77,0.51,10.52, -0.07,0.15,-0.82
329,-0.96,0.68,10.70, -0.17,0.03,-0.28
330,0.65,-0.26,10.77, -0.27,-0.13,0.23
331,4.16,-0.35,10.85, -0.25,-0.17,0.09
332,1.86,-0.68,10.31, -0.14,0.18,-0.14
333,3.02,-0.43,9.85, -0.12,0.02,-0.01
334,1.15,-3.50,10.47, 0.06,0.12,-0.19
335,0.81,0.34,10.44, 0.04,-0.04,-0.17
336,1.19,0.33,10.66, -0.03,-0.14,0.09
337,1.39,-0.03,10.70, -0.05,-0.07,0.03
338,0.12,0.12,10.57, -0.06,-0.16,0.06
339,1.10,-0.44,10.47, -0.01,-0.31,0.15
340,2.32,-1.15,10.48, -0.02,-0.10,-0.01
341,2.53,-0.23,10.79, 0.03,0.03,0.05
342,1.28,0.34,10.74, 0.02,0.17,-0.01
343,0.32,0.41,10.64, -0.07,0.09,0.01
344,0.28,0.23,10.61, -0.13,-0.07,0.00
345,1.09,0.66,10.62, -0.19,-0.18,0.00
346,1.45,-1.35,10.24, -0.24,-0.16,-0.11
347,2.23,-0.33,10.61, -0.18,-0.08,-0.05
348,2.08,-0.53,10.59, -0.13,0.01,0.03
349,2.06,-0.24,11.06, -0.12,0.15,-0.03
350,1.96,0.28,10.48, -0.09,0.28,-0.30
351,2.82,0.26,11.10, -0.17,0.50,-0.94
352,-9.25,-0.42,9.21, -0.25,0.07,-0.43
353,-0.75,1.07,11.30, -0.37,-0.44,0.39
354,4.06,-0.26,10.41, -0.22,-0.16,0.08
355,0.97,-0.43,10.89, 0.19,-0.35,1.06
356,1.23,-0.41,10.67, 0.29,-0.40,1.43
357,1.49,-0.96,10.96, 0.28,-0.27,1.39
358,2.56,-0.68,11.90, 0.21,-0.03,1.15
359,1.92,0.34,12.04, 0.16,-0.10,1.22
360,1.45,-0.26,11.73, 0.31,-0.35,1.02
361,1.60,-0.37,11.67, 0.44,-0.52,0.58
362,1.92,-0.38,11.90, 0.39,-0.44,0.10
363,2.03,-0.10,11.88, 0.26,-0.22,0.02
364,1.95,0.27,11.56, 0.06,-0.01,0.08
365,1.47,0.45,10.72, -0.24,0.11,-0.34
366,1.00,-0.67,10.46, -0.34,0.02,-0.53
367,1.97,-0.59,10.90, -0.42,0.15,-0.61
368,2.46,-0.76,10.78, -0.43,0.40,-0.95
369,1.92,-0.67,10.90, -0.31,0.52,-1.07
370,1.12,0.27,11.10, -0.24,0.41,-0.82
371,1.52,-0.65,11.06, -0.15,0.19,-0.58
372,2.33,-1.47,11.58, -0.10,0.19,-0.70
373,3.16,-2.32,11.55, -0.10,0.42,-0.97
374,2.90,-2.28,11.20, -0.17,0.61,-1.11
375,3.42,-1.68,10.86, -0.25,0.73,-0.73
376,3.01,-1.52,9.89, -0.28,0.72,-0.19
377,3.03,-1.99,9.53, -0.24,0.60,-0.32
378,3.35,-2.27,9.79, -0.18,0.50,-1.03
379,3.07,-1.91,9.90, -0.19,0.36,-1.30
380,2.79,-2.03,10.09, -0.31,0.12,-1.10
381,3.06,-1.83,10.73, -0.42,-0.09,-1.11
382,1.98,-1.21,10.70, -0.58,-0.43,-1.27
383,1.18,-1.09,10.47, -0.70,-0.98,-1.20
384,1.39,-1.01,10.99, -0.81,-1.40,-1.23
385,-0.97,-2.78,11.29, -0.85,-1.56,-1.19
386,-8.54,10.35,11.31, -1.38,-1.72,-2.27
387,-1.01,2.31,10.35, 0.07,-1.42,-2.81
388,1.98,2.60,11.13, 0.53,-0.57,-1.59
389,4.24,0.09,9.84, 0.56,0.46,-0.76
390,1.70,-0.98,9.93, 0.24,0.36,-0.86
391,1.10,-0.09,9.71, -0.45,-0.87,-1.35
392,2.49,0.56,10.75, -0.89,-1.36,-2.03
393,1.74,0.87,11.15, -0.77,-1.21,-2.04
394,2.29,0.20,11.06, -0.59,-0.81,-1.36
395,2.93,-0.57,9.88, -0.49,-0.09,-1.34
396,2.32,-0.79,9.86, -0.56,0.53,-1.64
397,2.66,0.12,10.76, -0.49,0.95,-1.70
398,1.93,0.79,11.01, -0.38,1.37,-1.46
399,1.41,0.79,10.65, -0.39,1.40,-1.12
400,1.03,1.31,11.02, -0.30,1.18,-0.97
401,1.44,1.27,11.36, -0.24,0.87,-1.02
402,1.25,1.74,11.72, -0.30,0.57,-1.12
403,3.40,0.34,11.10, -0.32,0.69,-0.71
404,3.39,-1.12,8.97, 0.06,1.04,-0.21
405,6.60,-2.90,6.39, 0.81,1.22,0.92
406,8.06,-0.50,5.29, 2.57,1.95,5.17
407,-3.00,20.23,12.16, 1.28,0.68,-0.24
408,3.94,-0.31,10.86, 0.43,0.86,-0.82
409,1.83,5.04,9.70, 0.24,0.84,-0.48
410,-1.17,4.79,11.00, -0.35,0.54,-1.32
411,2.12,2.17,9.38, -0.64,0.56,-1.31
412,-0.30,2.97,8.55, -0.82,0.53,-1.09
413,0.25,3.61,8.80, -1.02,0.31,-0.92
414,1.38,3.96,10.64, -1.22,0.08,-0.97
415,1.34,2.89,11.20, -1.20,0.13,-1.22
416,0.12,1.26,11.31, -0.69,0.14,-1.24
417,-0.06,0.78,11.45, 0.07,0.02,-0.94
418,0.41,2.34,10.83, 0.39,0.01,-1.03
419,0.23,2.44,9.61, 0.47,0.05,-1.31
420,-0.62,1.81,9.04, 0.56,-0.01,-1.33
421,-0.89,1.96,8.99, 0.64,-0.10,-1.20
422,-0.96,1.36,9.21, 0.51,-0.01,-1.25
423,-0.81,0.83,9.96, 0.44,0.17,-1.21
424,-1.52,-0.21,9.51, 0.36,0.26,-1.42
425,-2.04,-0.51,8.40, 0.37,-0.09,-1.40
426,-0.46,-2.17,8.91, 0.49,-0.29,-1.24
427,0.55,-2.64,9.13, 0.40,-0.11,-1.33
428,-1.69,-4.03,8.45, 0.40,-0.22,-1.28
429,-1.03,-4.44,9.24, 0.43,-0.66,-0.96
430,0.01,-3.11,9.39, 0.09,-0.90,-0.76
431,0.18,-5.01,10.83, -0.10,-0.90,-0.56
432,1.32,-4.63,12.40, -0.01,-0.89,-0.30
433,2.38,-3.50,13.18, 0.05,-0.54,-0.22
434,1.65,-2.48,12.81, -0.19,-0.16,-0.55
435,-0.59,-3.55,12.31, -0.38,-0.16,-0.32
436,20.21,-2.49,2.99, -1.55,-0.88,1.10
437,5.12,-4.00,6.96, -2.13,-0.04,-1.48
438,2.32,-2.13,11.11, -1.27,0.08,-0.02
439,-2.97,-1.55,14.94, -1.10,-0.05,0.03
440,0.66,-1.39,9.46, -0.76,-0.13,0.01
441,0.51,-2.02,11.16, -0.58,-0.18,-0.24
442,0.12,-3.01,10.48, -0.31,-0.26,-0.03
443,-0.02,-0.56,10.48, -0.17,-0.59,0.52
444,-0.49,-0.18,9.97, -0.42,-0.95,0.61
445,3.96,1.14,8.55, 0.33,-0.24,0.23
446,1.59,0.07,10.89, -0.11,-0.01,0.05
447,0.73,-1.49,10.05, -0.18,0.16,-0.35
448,-0.12,0.04,10.40, 0.11,-0.03,0.18
449,0.86,0.17,10.43, -0.05,-0.02,-0.02
450,1.52,-0.13,10.54, -0.21,-0.01,-0.04
451,0.74,0.16,10.67, -0.39,0.04,-0.21
452,2.41,-1.74,10.64, -0.35,-0.02,-0.22
453,-0.06,-2.73,10.32, -0.19,0.14,-0.10
454,1.47,-2.91,10.36, 0.02,-0.14,-0.06
455,-0.43,1.31,10.39, 0.03,-0.11,0.01
456,2.61,-0.48,10.45, -0.03,0.04,0.02
457,1.52,0.03,10.71, -0.18,-0.01,-0.02
458,0.79,-0.27,10.98, -0.20,0.14,-0.00
459,1.18,-2.51,10.47, -0.04,-0.11,-0.04
460,0.05,1.13,10.68, 0.01,-0.07,-0.02
461,3.13,-1.00,10.67, -0.05,0.00,0.02
462,0.65,0.61,10.54, -0.19,0.00,-0.02
463,0.15,-2.19,10.63, -0.11,0.06,0.03
464,1.75,-0.91,10.53, 0.03,-0.12,-0.01
465,1.18,0.47,10.83, -0.04,-0.03,0.01
466,2.33,-0.46,10.59, -0.11,0.03,0.01
467,0.09,-0.87,10.40, -0.19,0.03,-0.02
468,0.85,-2.04,10.70, 0.03,-0.03,0.01
469,2.25,-0.23,10.57, -0.06,-0.07,-0.02
470,0.98,0.43,10.58, -0.12,0.02,0.00
471,0.96,-1.72,10.48, -0.15,0.05,0.00
472,0.68,-1.34,10.60, 0.01,-0.09,-0.01
473,1.50,0.17,10.59, -0.04,-0.03,0.00
474,1.78,-0.18,10.51, -0.13,0.03,0.00
475,0.40,-1.70,10.63, -0.12,-0.00,0.01
476,1.19,-0.43,10.72, 0.02,-0.06,0.01
477,1.99,-0.17,10.64, -0.08,-0.03,0.00
478,0.89,-0.05,10.61, -0.15,0.04,-0.01
479,0.97,-1.97,10.63, -0.03,-0.04,0.01
480,1.39,0.27,10.70, -0.05,-0.06,-0.02
481,1.69,-0.06,10.55, -0.11,0.03,0.01
482,0.91,-2.01,10.56, -0.06,-0.03,-0.01
483,1.26,0.15,10.68, -0.02,-0.06,-0.00
484,1.82,-0.24,10.68, -0.10,0.03,0.01
485,0.78,-1.56,10.57, -0.10,-0.02,-0.01
486,1.07,-0.28,10.59, -0.01,-0.04,0.00
487,1.91,-0.32,10.58, -0.10,-0.00,0.00
488,0.32,-1.10,10.55, -0.11,-0.01,-0.01
489,1.36,-0.82,10.56, -0.01,-0.04,0.01
490,1.82,-0.11,10.60, -0.11,-0.01,-0.01
491,0.40,-0.91,10.60, -0.09,0.00,-0.00
492,1.51,-0.97,10.65, -0.02,-0.04,0.00
493,1.44,0.04,10.68, -0.11,-0.02,-0.01
494,0.53,-1.03,10.58, -0.08,-0.00,0.00
495,1.71,-0.73,10.75, -0.03,-0.03,0.01
496,1.25,-0.03,10.60, -0.11,-0.02,-0.01
497,0.67,-1.09,10.64, -0.08,-0.00,0.00
498,1.52,-0.62,10.65, -0.04,-0.04,0.00
499,1.23,-0.22,10.67, -0.10,-0.00,-0.01
500,0.85,-1.14,10.52, -0.07,-0.01,0.00
501,1.40,-0.40,10.75, -0.04,-0.04,-0.00
502,1.34,-0.25,10.69, -0.10,0.00,-0.00
503,0.93,-1.13,10.60, -0.07,-0.01,-0.00
504,1.33,-0.43,10.67, -0.05,-0.03,-0.00
505,1.34,-0.36,10.62, -0.10,0.00,-0.00
506,0.87,-1.06,10.58, -0.07,-0.02,-0.00
507,1.32,-0.27,10.66, -0.06,-0.02,-0.00
508,1.22,-0.59,10.63, -0.10,0.00,-0.00
509,0.96,-0.90,10.67, -0.06,-0.02,0.00
510,1.29,-0.28,10.63, -0.06,-0.02,-0.00
511,1.24,-0.70,10.60, -0.09,0.00,-0.00
512,0.98,-0.90,10.64, -0.06,-0.03,-0.00
513,1.36,-0.32,10.60, -0.07,-0.02,-0.00
514,1.13,-0.84,10.63, -0.09,-0.00,-0.00
515,1.10,-0.75,10.62, -0.05,-0.03,0.00
516,1.39,-0.35,10.64, -0.08,-0.01,-0.00
517,1.09,-0.91,10.58, -0.09,-0.01,-0.00
518,1.16,-0.74,10.71, -0.06,-0.03,0.00
519,1.45,-0.35,10.67, -0.08,-0.01,-0.00
520,1.05,-0.88,10.64, -0.08,-0.02,-0.00
521,1.18,-0.48,10.59, -0.06,-0.02,-0.00
522,1.29,-0.52,10.66, -0.09,-0.00,-0.00
523,0.96,-0.95,10.63, -0.07,-0.02,-0.00
524,1.25,-0.47,10.60, -0.06,-0.02,-0.00
525,1.25,-0.51,10.53, -0.09,-0.00,-0.00
526,1.02,-0.78,10.61, -0.07,-0.02,-0.00
527,1.22,-0.35,10.68, -0.07,-0.01,-0.00
528,1.21,-0.73,10.61, -0.09,-0.01,-0.00
529,1.02,-0.71,10.61, -0.06,-0.02,-0.00
530,1.31,-0.42,10.61, -0.07,-0.01,-0.01
531,1.17,-0.74,10.62, -0.08,-0.01,-0.00
532,1.15,-0.68,10.66, -0.06,-0.02,-0.00
533,1.33,-0.59,10.74, -0.08,-0.01,-0.00
534,1.06,-0.80,10.58, -0.08,-0.01,-0.01
535,1.26,-0.62,10.62, -0.06,-0.02,0.00
536,1.29,-0.51,10.62, -0.08,-0.01,-0.00
537,1.03,-0.79,10.70, -0.07,-0.02,-0.00
538,1.32,-0.59,10.59, -0.06,-0.02,-0.00
539,1.27,-0.63,10.58, -0.08,-0.02,-0.00
540,1.01,-0.74,10.56, -0.07,-0.02,-0.00
541,1.30,-0.50,10.61, -0.07,-0.02,0.00
542,1.18,-0.70,10.68, -0.09,-0.01,-0.00
543,1.09,-0.63,10.64, -0.07,-0.02,-0.00
544,1.37,-0.55,10.58, -0.07,-0.01,-0.00
545,1.20,-0.77,10.58, -0.08,-0.02,-0.00
546,1.06,-0.54,10.67, -0.06,-0.02,0.00
547,1.22,-0.60,10.66, -0.08,-0.01,-0.00
548,1.06,-0.69,10.63, -0.08,-0.02,-0.00
549,1.15,-0.53,10.58, -0.07,-0.01,-0.00
550,1.27,-0.65,10.64, -0.08,-0.01,-0.00
551,1.07,-0.67,10.63, -0.08,-0.02,-0.00
552,1.19,-0.50,10.64, -0.07,-0.02,-0.00
553,1.27,-0.67,10.57, -0.08,-0.01,-0.00
554,1.13,-0.64,10.65, -0.07,-0.02,-0.00
555,1.26,-0.52,10.67, -0.07,-0.01,-0.00
556,1.15,-0.70,10.66, -0.08,-0.01,-0.00
557,1.18,-0.59,10.63, -0.06,-0.02,-0.00
558,1.17,-0.53,10.61, -0.07,-0.01,0.00
559,1.21,-0.66,10.65, -0.07,-0.02,-0.00
560,1.17,-0.54,10.68, -0.07,-0.02,-0.00
561,1.26,-0.58,10.54, -0.07,-0.01,0.00
562,1.16,-0.75,10.69, -0.08,-0.03,-0.01
563,1.01,-0.45,10.61, -0.06,-0.01,0.00
564,1.53,-0.76,10.63, -0.08,-0.01,-0.00
565,0.95,-0.56,10.60, -0.08,-0.02,-0.01
566,1.07,-0.56,10.63, -0.06,-0.00,0.01
567,1.56,-0.81,10.61, -0.08,-0.02,-0.01
568,0.88,-0.47,10.64, -0.08,-0.02,-0.01
569,1.30,-0.67,10.64, -0.06,-0.00,0.01
570,1.38,-0.78,10.65, -0.08,-0.02,-0.01
571,0.90,-0.38,10.57, -0.07,-0.03,-0.01
572,1.19,-0.56,10.55, -0.07,0.00,0.01
573,1.32,-0.83,10.67, -0.07,-0.02,-0.01
574,1.10,-0.41,10.65, -0.08,-0.02,-0.01
575,1.32,-0.75,10.62, -0.07,-0.00,0.00
576,1.24,-0.73,10.62, -0.07,-0.02,-0.01
577,0.99,-0.42,10.52, -0.07,-0.01,-0.00
578,1.33,-0.78,10.56, -0.07,-0.01,-0.00
579,1.16,-0.65,10.69, -0.07,-0.02,-0.01
580,1.26,-0.55,10.59, -0.07,-0.01,0.00
581,1.34,-0.85,10.72, -0.08,-0.02,-0.00
582,1.07,-0.61,10.58, -0.07,-0.02,-0.00
583,1.23,-0.49,10.61, -0.07,-0.01,0.00
584,1.20,-0.77,10.64, -0.07,-0.01,-0.00
585,1.07,-0.53,10.66, -0.07,-0.02,-0.00
586,1.27,-0.58,10.58, -0.07,-0.01,0.00
587,1.12,-0.68,10.69, -0.08,-0.02,-0.00
588,1.25,-0.57,10.60, -0.07,-0.01,0.00
589,1.25,-0.74,10.60, -0.08,-0.02,-0.01
590,0.97,-0.60,10.60, -0.07,-0.02,0.00
591,1.43,-0.59,10.66, -0.08,-0.01,0.00
592,1.08,-0.65,10.60, -0.08,-0.02,-0.01
593,1.09,-0.63,10.63, -0.06,-0.01,0.00
594,1.41,-0.65,10.60, -0.07,-0.02,-0.00
595,1.06,-0.52,10.59, -0.08,-0.02,-0.01
596,1.10,-0.58,10.51, -0.06,-0.01,0.00
597,1.40,-0.76,10.63, -0.08,-0.02,-0.00
598,0.59,-0.19,9.54, -0.08,-0.03,0.03
599,1.25,-0.46,10.70, -0.07,0.01,-0.00
600,1.70,-0.35,11.13, -0.08,-0.01,0.01
601,0.87,-0.61,10.67, -0.07,-0.03,-0.01
602,1.29,-0.48,10.57, -0.07,-0.01,0.00
603,1.48,-0.82,10.95, -0.08,-0.02,-0.01
604,0.71,-0.26,10.56, -0.07,-0.02,-0.00
605,1.64,-1.03,10.56, -0.07,0.00,0.01
606,0.93,-0.46,10.65, -0.08,-0.04,-0.02
607,0.99,-0.51,10.59, -0.06,0.01,0.01
608,1.75,-1.06,10.59, -0.07,-0.01,0.00
609,0.77,-0.37,10.60, -0.08,-0.04,-0.01
610,1.05,-0.50,10.53, -0.06,0.01,0.01
611,1.71,-0.92,10.62, -0.08,-0.02,-0.01
612,0.64,-0.29,10.68, -0.08,-0.02,-0.01
613,1.39,-0.74,10.64, -0.06,0.00,0.01
614,1.41,-0.74,10.62, -0.09,-0.03,-0.01
615,0.72,-0.38,10.61, -0.07,-0.01,-0.00
616,1.60,-0.82,10.57, -0.07,-0.01,0.00
617,1.15,-0.59,10.61, -0.09,-0.03,-0.01
618,0.99,-0.58,10.70, -0.07,-0.01,0.00
619,1.51,-0.78,10.58, -0.07,-0.01,-0.00
620,1.06,-0.51,10.65, -0.08,-0.03,-0.01
621,1.04,-0.56,10.63, -0.07,-0.01,0.00
622,1.43,-0.80,10.57, -0.07,-0.01,-0.00
623,0.99,-0.53,10.67, -0.08,-0.02,-0.01
624,1.20,-0.55,10.55, -0.07,-0.01,0.00
625,1.30,-0.73,10.63, -0.07,-0.02,-0.00
626,0.99,-0.52,10.65, -0.07,-0.02,-0.00
627,1.22,-0.64,10.64, -0.07,-0.01,0.00
628,1.20,-0.66,10.69, -0.08,-0.02,-0.00
629,1.07,-0.57,10.66, -0.07,-0.02,-0.00
630,1.30,-0.69,10.66, -0.07,-0.02,-0.00
631,1.10,-0.61,10.69, -0.08,-0.02,-0.00
632,1.13,-0.63,10.66, -0.07,-0.01,-0.00
633,1.25,-0.66,10.60, -0.07,-0.02,-0.00
634,1.15,-0.61,10.66, -0.07,-0.02,-0.00
635,1.15,-0.55,10.64, -0.08,-0.02,-0.00
636,1.12,-0.64,10.64, -0.07,-0.01,-0.00
637,1.19,-0.55,10.57, -0.07,-0.01,-0.00
638,1.25,-0.70,10.60, -0.07,-0.01,0.00
639,1.14,-0.61,10.62, -0.07,-0.02,-0.00
640,1.21,-0.62,10.63, -0.07,-0.02,0.00
641,1.19,-0.62,10.64, -0.07,-0.02,-0.00
642,1.19,-0.62,10.69, -0.07,-0.01,0.00
643,1.24,-0.62,10.67, -0.07,-0.02,-0.00
644,1.22,-0.71,10.65, -0.07,-0.02,-0.00
645,1.23,-0.61,10.65, -0.07,-0.01,-0.00
646,1.18,-0.62,10.56, -0.07,-0.02,0.00
647,1.16,-0.63,10.65, -0.07,-0.01,-0.00
648,1.20,-0.65,10.68, -0.07,-0.02,-0.01
649,1.16,-0.59,10.56, -0.07,-0.01,-0.00
650,1.22,-0.60,10.59, -0.07,-0.02,-0.00
651,1.14,-0.62,10.65, -0.07,-0.02,-0.00
652,1.13,-0.58,10.65, -0.07,-0.02,-0.00
653,1.22,-0.69,10.58, -0.07,-0.02,-0.00
654,1.20,-0.65,10.62, -0.07,-0.02,-0.00
655,1.19,-0.62,10.65, -0.07,-0.02,0.00
656,1.25,-0.65,10.60, -0.07,-0.01,-0.00
657,1.15,-0.56,10.65, -0.07,-0.01,-0.00
658,1.21,-0.65,10.65, -0.07,-0.01,-0.00
659,1.27,-0.72,10.62, -0.07,-0.02,0.00
660,1.17,-0.67,10.55, -0.07,-0.02,-0.00
661,1.14,-0.66,10.64, -0.07,-0.01,0.00
662,1.20,-0.61,10.63, -0.07,-0.02,-0.00
663,1.15,-0.59,10.60, -0.07,-0.02,-0.00
664,1.22,-0.70,10.64, -0.07,-0.01,-0.00
665,1.22,-0.69,10.67, -0.07,-0.02,-0.00
666,1.14,-0.60,10.62, -0.07,-0.02,-0.00
667,1.24,-0.62,10.68, -0.07,-0.01,-0.00
668,1.21,-0.61,10.65, -0.07,-0.02,-0.00
669,1.20,-0.68,10.60, -0.07,-0.01,-0.00
670,1.24,-0.64,10.65, -0.07,-0.02,-0.00
671,1.20,-0.62,10.66, -0.07,-0.02,0.00
672,1.19,-0.62,10.66, -0.08,-0.01,-0.00
673,1.15,-0.67,10.60, -0.07,-0.02,-0.00
674,1.21,-0.63,10.61, -0.07,-0.01,-0.00
675,1.20,-0.64,10.65, -0.07,-0.02,-0.00
676,1.15,-0.55,10.65, -0.07,-0.02,-0.00
677,1.15,-0.55,10.56, -0.07,-0.02,-0.00
678,1.14,-0.61,10.58, -0.07,-0.02,-0.00
679,1.17,-0.61,10.60, -0.07,-0.01,0.00
680,1.24,-0.59,10.58, -0.08,-0.01,-0.00
681,1.13,-0.60,10.54, -0.07,-0.02,-0.00
682,1.17,-0.57,10.59, -0.07,-0.01,-0.00
683,1.21,-0.66,10.59, -0.07,-0.01,-0.00
684,1.18,-0.61,10.65, -0.07,-0.02,-0.00
685,1.25,-0.59,10.62, -0.08,-0.01,-0.00
686,1.11,-0.53,10.56, -0.07,-0.02,-0.00
687,1.14,-0.60,10.64, -0.08,-0.02,-0.00
688,1.20,-0.66,10.57, -0.07,-0.02,-0.00
689,1.15,-0.64,10.52, -0.07,-0.01,-0.00
690,1.13,-0.62,10.69, -0.07,-0.01,-0.00
691,1.16,-0.58,10.58, -0.07,-0.02,-0.00
692,1.18,-0.64,10.67, -0.08,-0.02,-0.00
693,1.21,-0.64,10.58, -0.08,-0.01,-0.00
694,1.25,-0.66,10.63, -0.07,-0.01,-0.00
695,1.18,-0.61,10.65, -0.08,-0.02,-0.00
696,1.12,-0.57,10.65, -0.07,-0.01,-0.00
697,1.23,-0.66,10.58, -0.08,-0.01,-0.00
698,1.20,-0.64,10.57, -0.08,-0.02,-0.00
699,1.17,-0.74,10.52, -0.07,-0.01,-0.00
700,1.22,-0.70,10.63, -0.07,-0.02,-0.00
701,1.21,-0.55,10.58, -0.07,-0.02,0.00
702,1.16,-0.57,10.59, -0.08,-0.01,-0.00
703,1.24,-0.66,10.63, -0.07,-0.02,-0.00
704,1.19,-0.68,10.58, -0.08,-0.02,-0.00
705,1.17,-0.65,10.55, -0.07,-0.01,-0.00
706,1.20,-0.65,10.56, -0.07,-0.02,0.00
707,1.13,-0.58,10.55, -0.07,-0.02,-0.00
708,1.18,-0.60,10.65, -0.07,-0.01,-0.00
709,1.27,-0.67,10.60, -0.08,-0.02,-0.00
710,1.13,-0.59,10.64, -0.07,-0.02,-0.00
711,1.13,-0.69,10.64, -0.07,-0.01,0.00
712,1.27,-0.66,10.56, -0.08,-0.02,-0.00
713,1.15,-0.60,10.62, -0.07,-0.01,-0.00
714,1.19,-0.63,10.63, -0.07,-0.01,-0.00
715,1.18,-0.63,10.66, -0.07,-0.02,-0.00
716,1.14,-0.64,10.63, -0.07,-0.01,0.00
717,1.22,-0.64,10.64, -0.08,-0.01,-0.00
718,1.15,-0.58,10.55, -0.08,-0.02,-0.00
719,1.21,-0.69,10.58, -0.07,-0.02,-0.00
720,1.21,-0.60,10.59, -0.07,-0.02,-0.00
721,1.15,-0.62,10.64, -0.07,-0.01,-0.00
722,1.19,-0.54,10.65, -0.07,-0.02,0.00
723,1.15,-0.58,10.68, -0.07,-0.02,-0.00
724,1.17,-0.61,10.59, -0.08,-0.02,-0.00
725,1.20,-0.66,10.55, -0.07,-0.01,-0.00
726,1.16,-0.58,10.66, -0.07,-0.02,-0.00
727,1.20,-0.56,10.66, -0.07,-0.01,0.00
728,1.23,-0.64,10.65, -0.08,-0.02,-0.00
729,1.24,-0.62,10.55, -0.08,-0.02,-0.00
730,1.24,-0.70,10.71, -0.07,-0.01,-0.00
731,1.21,-0.64,10.61, -0.07,-0.02,-0.00
732,1.15,-0.48,10.59, -0.07,-0.01,-0.00
733,1.14,-0.63,10.57, -0.08,-0.01,0.00
734,1.21,-0.69,10.61, -0.07,-0.01,-0.00
735,1.20,-0.68,10.60, -0.07,-0.01,-0.00
736,1.17,-0.52,10.63, -0.07,-0.02,-0.00
737,1.17,-0.54,10.63, -0.07,-0.02,-0.00
738,1.15,-0.59,10.62, -0.07,-0.02,-0.00
739,1.17,-0.68,10.63, -0.07,-0.02,-0.00
740,1.16,-0.65,10.57, -0.07,-0.02,-0.00
741,1.21,-0.63,10.59, -0.07,-0.02,-0.00
742,1.18,-0.59,10.58, -0.07,-0.01,-0.00
743,1.24,-0.57,10.55, -0.07,-0.02,-0.00
744,1.16,-0.59,10.69, -0.08,-0.01,-0.00
745,1.18,-0.65,10.56, -0.07,-0.01,-0.00
746,1.23,-0.59,10.63, -0.07,-0.01,0.00
747,1.18,-0.62,10.56, -0.07,-0.01,-0.00
748,1.16,-0.60,10.60, -0.07,-0.01,-0.00
749,1.18,-0.60,10.66, -0.07,-0.01,-0.00
750,1.14,-0.68,10.57, -0.07,-0.02,-0.00
751,1.14,-0.62,10.60, -0.07,-0.02,-0.00
752,1.19,-0.70,10.58, -0.07,-0.01,-0.00
753,1.22,-0.55,10.65, -0.07,-0.02,-0.00
754,1.17,-0.61,10.55, -0.07,-0.01,-0.00
755,1.15,-0.63,10.63, -0.07,-0.02,-0.00
756,1.16,-0.60,10.63, -0.08,-0.02,-0.00
757,1.19,-0.60,10.51, -0.08,-0.01,-0.00
758,1.17,-0.64,10.62, -0.07,-0.01,-0.00
759,1.18,-0.65,10.60, -0.08,-0.02,-0.00
760,1.15,-0.59,10.58, -0.08,-0.01,-0.00
761,1.19,-0.60,10.60, -0.07,-0.01,0.00
762,1.22,-0.59,10.56, -0.08,-0.01,-0.00
763,1.14,-0.67,10.63, -0.08,-0.02,-0.00
764,1.20,-0.63,10.53, -0.07,-0.01,0.00
765,1.32,-0.57,10.68, -0.08,-0.01,0.00
766,1.29,-0.61,10.70, -0.08,-0.02,-0.00
767,1.18,-0.56,10.60, -0.07,-0.02,-0.00
768,1.24,-0.61,10.72, -0.08,-0.02,-0.01
769,1.15,-0.65,10.61, -0.07,-0.02,-0.00
770,1.13,-0.57,10.64, -0.07,-0.01,-0.00
771,1.17,-0.69,10.64, -0.07,-0.01,-0.00
772,1.18,-0.60,10.61, -0.07,-0.02,-0.01
773,1.13,-0.57,10.71, -0.08,-0.02,-0.00
774,1.21,-0.65,10.68, -0.07,-0.02,-0.00
775,1.14,-0.58,10.58, -0.07,-0.02,-0.00
776,1.18,-0.67,10.64, -0.07,-0.01,-0.00
777,1.19,-0.63,10.70, -0.07,-0.01,-0.00
778,1.16,-0.58,10.64, -0.07,-0.01,-0.00
779,1.17,-0.64,10.64, -0.07,-0.02,-0.00
780,1.17,-0.60,10.55, -0.07,-0.02,-0.01
781,1.16,-0.62,10.56, -0.07,-0.02,-0.00
782,1.18,-0.67,10.68, -0.07,-0.01,0.00
783,1.16,-0.61,10.56, -0.07,-0.02,0.00
784,1.10,-0.65,10.58, -0.07,-0.01,-0.00
785,1.19,-0.73,10.53, -0.07,-0.01,-0.00
786,1.20,-0.72,10.69, -0.07,-0.01,-0.00
787,1.18,-0.67,10.62, -0.07,-0.02,-0.00
788,1.22,-0.59,10.70, -0.07,-0.02,-0.00
789,1.12,-0.60,10.58, -0.07,-0.02,-0.00
790,1.16,-0.67,10.53, -0.07,-0.01,-0.00
791,1.04,-0.68,10.55, -0.12,-0.00,-0.00
792,1.04,-0.82,10.61, -0.05,-0.02,0.01
793,1.40,-0.14,10.59, -0.10,-0.00,-0.01
794,1.06,-0.69,10.58, -0.14,-0.00,-0.00
795,0.80,-2.17,10.45, -0.00,-0.03,-0.01
796,1.09,1.19,10.93, 0.01,-0.11,-0.06
797,2.00,-0.14,10.77, -0.06,0.02,0.02
798,1.87,-0.09,10.50, -0.19,0.02,-0.01
799,-0.62,-2.07,10.83, -0.12,0.02,0.01
800,1.87,-1.09,10.35, 0.07,-0.08,0.03
801,1.55,0.20,10.65, -0.07,-0.07,-0.02
802,1.39,0.16,10.70, -0.11,0.05,0.02
803,0.73,-1.77,10.29, -0.18,0.03,-0.02
804,0.20,-1.43,10.65, 0.03,-0.08,0.02
805,1.85,0.05,10.62, -0.03,-0.04,-0.01
806,1.56,-0.06,10.58, -0.12,0.01,0.01
807,0.37,-1.36,10.47, -0.16,0.04,-0.00
808,0.93,-1.49,10.53, 0.03,-0.07,0.01
809,1.69,-0.02,10.73, -0.06,-0.05,-0.01
810,1.46,0.14,10.47, -0.14,0.04,0.01
811,0.51,-2.05,10.44, -0.09,-0.01,0.00
812,1.14,0.17,10.68, 0.00,-0.07,-0.01
813,2.00,-0.13,10.60, -0.08,0.00,0.00
814,1.14,-0.43,10.66, -0.17,0.04,-0.01
815,0.62,-1.70,10.64, -0.01,-0.04,0.00
816,1.64,0.02,10.62, -0.04,-0.05,-0.01
817,1.55,0.02,10.62, -0.12,0.02,0.01
818,0.52,-1.72,10.55, -0.11,-0.00,-0.00
819,1.15,-0.32,10.67, 0.00,-0.06,0.01
820,1.89,-0.10,10.68, -0.08,-0.01,-0.00
821,0.61,-0.84,10.63, -0.14,0.02,-0.02
822,1.20,0.08,10.68, -0.01,-0.05,-0.00
823,1.83,-0.19,10.54, -0.11,0.02,0.01
824,0.72,-1.71,10.47, -0.07,-0.03,-0.01
825,1.15,0.21,10.68, -0.03,-0.04,-0.00
826,1.55,-0.36,10.62, -0.12,0.04,0.00
827,0.95,-1.55,10.61, -0.05,-0.04,-0.00
828,1.18,0.22,10.61, -0.07,-0.03,-0.01
829,1.09,-0.85,10.58, -0.11,0.03,0.00
830,1.26,-1.13,10.62, -0.03,-0.05,0.00
831,1.39,0.07,10.65, -0.10,-0.02,-0.01
832,0.61,-1.06,10.63, -0.09,0.00,0.00
833,1.48,-0.70,10.66, -0.03,-0.04,0.00
834,1.46,-0.27,10.66, -0.11,-0.00,-0.01
835,0.70,-1.01,10.60, -0.05,-0.03,-0.00
836,1.51,-0.09,10.58, -0.06,-0.02,0.00
837,1.15,-0.89,10.64, -0.11,0.00,-0.00
838,1.05,-0.72,10.59, -0.04,-0.04,-0.00
839,1.40,-0.23,10.60, -0.09,0.00,0.00
840,0.93,-1.18,10.58, -0.07,-0.01,-0.00
841,1.36,-0.23,10.63, -0.06,-0.03,-0.00
842,1.13,-0.59,10.63, -0.10,0.01,-0.00
843,1.12,-1.06,10.66, -0.05,-0.03,0.00
844,1.49,-0.27,10.70, -0.08,-0.01,-0.00
845,0.89,-0.95,10.56, -0.08,-0.01,-0.00
846,1.31,-0.56,10.63, -0.05,-0.03,0.00
847,1.30,-0.62,10.63, -0.10,0.00,-0.00
848,1.02,-0.95,10.60, -0.06,-0.03,-0.00
849,1.31,-0.21,10.59, -0.07,-0.01,-0.00
850,1.00,-0.86,10.51, -0.09,-0.01,-0.00
851,1.24,-0.62,10.57, -0.05,-0.03,-0.00
852,1.27,-0.39,10.67, -0.09,-0.01,-0.00
853,1.01,-0.94,10.67, -0.07,-0.02,0.00
854,1.37,-0.36,10.59, -0.07,-0.02,-0.00
855,1.10,-0.79,10.68, -0.09,-0.01,-0.00
856,1.12,-0.72,10.57, -0.05,-0.03,0.00
857,1.37,-0.37,10.60, -0.08,-0.01,-0.00
858,0.98,-0.84,10.64, -0.07,-0.01,-0.01
859,1.24,-0.41,10.59, -0.06,-0.02,-0.00
860,1.17,-0.72,10.63, -0.09,-0.01,-0.00
861,1.16,-0.72,10.65, -0.06,-0.03,-0.00
862,1.27,-0.43,10.61, -0.08,-0.01,-0.00
863,1.04,-0.85,10.55, -0.08,-0.01,-0.00
864,1.29,-0.50,10.59, -0.07,-0.02,-0.00
865,1.15,-0.74,10.64, -0.08,-0.01,-0.00
866,1.10,-0.75,10.66, -0.06,-0.02,0.00
867,1.30,-0.42,10.55, -0.07,-0.01,-0.00
868,1.07,-0.78,10.69, -0.08,-0.02,-0.00
869,1.24,-0.55,10.63, -0.06,-0.02,-0.00
870,1.23,-0.61,10.59, -0.08,-0.01,-0.00
871,1.11,-0.74,10.68, -0.06,-0.02,-0.00
872,1.25,-0.52,10.66, -0.08,-0.01,-0.00
873,1.08,-0.76,10.58, -0.07,-0.01,-0.00
874,1.28,-0.54,10.60, -0.07,-0.02,-0.00
875,1.19,-0.61,10.65, -0.08,-0.01,-0.00
876,1.07,-0.70,10.70, -0.07,-0.02,-0.00
877,1.30,-0.46,10.66, -0.08,-0.01,-0.00
878,1.14,-0.72,10.57, -0.07,-0.01,-0.00
879,1.24,-0.48,10.62, -0.07,-0.02,0.00
880,1.17,-0.66,10.69, -0.08,-0.01,-0.00
881,1.16,-0.71,10.64, -0.07,-0.02,-0.00
882,1.24,-0.52,10.59, -0.08,-0.01,-0.00
883,1.07,-0.70,10.61, -0.08,-0.01,-0.00
884,1.23,-0.60,10.59, -0.07,-0.02,-0.00
885,1.20,-0.67,10.60, -0.08,-0.01,-0.00
886,1.13,-0.78,10.59, -0.07,-0.02,-0.00
887,1.29,-0.52,10.60, -0.07,-0.02,-0.00
888,1.16,-0.68,10.61, -0.08,-0.01,-0.00
889,1.24,-0.62,10.58, -0.07,-0.02,-0.00
890,1.07,-0.58,10.64, -0.08,-0.01,-0.00
891,1.23,-0.70,10.63, -0.06,-0.01,0.00
892,1.37,-0.64,10.66, -0.07,-0.02,-0.00
893,1.02,-0.57,10.68, -0.08,-0.02,-0.01
894,1.13,-0.55,10.52, -0.07,-0.01,0.00
895,1.40,-0.73,10.56, -0.08,-0.01,-0.00
896,1.17,-0.67,10.70, -0.08,-0.02,-0.01
897,1.13,-0.40,10.61, -0.07,-0.02,-0.00
898,1.30,-0.69,10.63, -0.08,-0.01,0.00
899,1.23,-0.69,10.64, -0.07,-0.02,-0.00
900,1.13,-0.53,10.62, -0.08,-0.02,-0.01
901,1.06,-0.68,10.64, -0.07,-0.02,0.00
902,1.34,-0.53,10.64, -0.07,-0.02,-0.00
903,1.13,-0.65,10.62, -0.08,-0.01,-0.00
904,1.13,-0.62,10.57, -0.07,-0.02,-0.00
905,1.28,-0.58,10.55, -0.08,-0.02,0.00
906,1.19,-0.70,10.64, -0.07,-0.02,-0.00
907,1.17,-0.54,10.58, -0.07,-0.02,-0.00
908,1.17,-0.70,10.61, -0.08,-0.01,-0.00
909,1.26,-0.65,10.57, -0.07,-0.02,-0.00
910,1.15,-0.62,10.63, -0.08,-0.02,-0.00
911,1.14,-0.64,10.56, -0.07,-0.01,-0.00
912,1.24,-0.63,10.60, -0.07,-0.01,0.00
913,1.10,-0.66,10.61, -0.08,-0.02,-0.00
914,1.12,-0.59,10.70, -0.07,-0.02,-0.00
915,1.33,-0.64,10.64, -0.08,-0.01,-0.00
916,1.13,-0.71,10.57, -0.07,-0.02,-0.00
917,1.20,-0.61,10.55, -0.07,-0.02,-0.00
918,1.21,-0.68,10.64, -0.08,-0.01,-0.00
919,1.19,-0.63,10.62, -0.07,-0.02,-0.00
920,1.14,-0.55,10.59, -0.08,-0.01,-0.00
921,1.17,-0.63,10.64, -0.07,-0.01,-0.00
922,1.25,-0.51,10.64, -0.07,-0.01,-0.00
923,1.05,-0.59,10.65, -0.08,-0.01,-0.00
924,1.03,-0.63,10.60, -0.07,-0.02,0.00
925,1.25,-0.62,10.56, -0.08,-0.02,-0.01
926,1.17,-0.71,10.61, -0.08,-0.02,-0.00
927,1.17,-0.54,10.63, -0.07,-0.02,-0.00
928,1.18,-0.68,10.61, -0.07,-0.01,-0.00
929,1.18,-0.63,10.56, -0.07,-0.02,-0.00
930,1.10,-0.54,10.63, -0.08,-0.02,-0.00
931,1.17,-0.66,10.61, -0.07,-0.02,-0.00
932,1.31,-0.57,10.60, -0.07,-0.02,-0.00
933,1.07,-0.60,10.63, -0.08,-0.02,-0.00
934,1.09,-0.68,10.59, -0.07,-0.02,0.00
935,1.23,-0.67,10.70, -0.07,-0.01,-0.00
936,1.17,-0.62,10.61, -0.07,-0.02,-0.00
937,1.07,-0.58,10.60, -0.07,-0.02,0.00
938,1.28,-0.67,10.64, -0.07,-0.01,-0.00
939,1.10,-0.63,10.57, -0.08,-0.02,-0.00
940,1.15,-0.61,10.59, -0.08,-0.02,-0.00
941,1.25,-0.66,10.59, -0.07,-0.01,0.00
942,1.19,-0.63,10.67, -0.07,-0.02,-0.00
943,1.14,-0.54,10.65, -0.08,-0.02,-0.00
944,1.12,-0.56,10.65, -0.07,-0.01,-0.00
945,1.20,-0.71,10.59, -0.07,-0.02,-0.00
946,1.15,-0.61,10.53, -0.07,-0.02,-0.00
947,1.19,-0.57,10.59, -0.07,-0.02,-0.00
948,1.14,-0.64,10.59, -0.07,-0.01,-0.00
949,1.23,-0.65,10.51, -0.08,-0.02,-0.00
950,1.21,-0.65,10.63, -0.07,-0.02,-0.00
951,1.19,-0.59,10.64, -0.07,-0.02,-0.00
952,1.29,-0.64,10.62, -0.07,-0.02,-0.00
953,1.13,-0.57,10.62, -0.07,-0.01,0.00
954,1.30,-0.64,10.66, -0.07,-0.02,-0.00
955,1.27,-0.58,10.60, -0.07,-0.02,-0.00
956,1.10,-0.55,10.70, -0.07,-0.02,-0.00
957,1.20,-0.58,10.61, -0.07,-0.01,0.00
958,1.26,-0.69,10.75, -0.08,-0.02,-0.01
959,1.03,-0.59,10.57, -0.08,-0.02,-0.00
960,1.09,-0.54,10.58, -0.07,-0.02,-0.00
961,1.27,-0.75,10.65, -0.08,-0.01,0.00
962,1.20,-0.69,10.61, -0.07,-0.02,-0.00
963,1.12,-0.58,10.62, -0.08,-0.02,-0.00
964,1.21,-0.68,10.57, -0.07,-0.01,0.00
965,1.24,-0.60,10.60, -0.07,-0.02,-0.00
966,1.09,-0.59,10.59, -0.08,-0.02,-0.00
967,1.13,-0.62,10.62, -0.07,-0.01,-0.00
968,1.20,-0.64,10.70, -0.07,-0.01,-0.00
969,1.17,-0.62,10.56, -0.07,-0.02,-0.00
970,1.12,-0.57,10.65, -0.07,-0.01,-0.00
971,1.28,-0.64,10.65, -0.07,-0.02,-0.00
972,1.19,-0.65,10.64, -0.07,-0.01,-0.00
973,1.15,-0.60,10.60, -0.07,-0.02,-0.00
974,1.13,-0.59,10.54, -0.07,-0.01,-0.00
975,1.20,-0.64,10.60, -0.07,-0.01,-0.00
976,1.12,-0.63,10.54, -0.08,-0.02,-0.00
977,1.19,-0.65,10.62, -0.07,-0.02,-0.00
978,1.16,-0.74,10.69, -0.07,-0.01,-0.00
979,1.25,-0.77,10.63, -0.07,-0.01,0.00
980,1.16,-0.56,10.52, -0.07,-0.01,-0.00
981,1.09,-0.57,10.64, -0.08,-0.01,-0.00
982,1.34,-0.73,10.72, -0.07,-0.02,-0.01
983,1.14,-0.55,10.68, -0.07,-0.02,-0.00
984,1.02,-0.69,10.55, -0.07,-0.01,0.00
985,1.17,-0.68,10.59, -0.06,-0.02,-0.00
986,1.24,-0.52,10.51, -0.08,-0.02,-0.00
987,1.09,-0.58,10.61, -0.09,-0.01,-0.00
988,1.23,-0.88,10.64, -0.05,-0.00,0.02
989,1.68,-0.51,10.58, -0.08,-0.01,0.00
990,0.88,-0.88,10.63, -0.08,-0.02,-0.01
991,1.21,-0.34,10.54, -0.05,-0.02,-0.00
992,1.28,-0.66,10.58, -0.08,-0.01,-0.00
993,1.07,-0.83,10.66, -0.04,-0.03,-0.00
994,1.15,-0.64,10.66, -0.04,-0.04,0.00
995,1.44,-0.23,10.68, -0.07,-0.03,0.00
996,1.43,-0.52,10.62, -0.11,0.02,0.00
997,0.67,-0.95,10.59, -0.10,-0.01,-0.01
998,1.15,-0.45,10.60, -0.05,-0.04,-0.01
999,1.79,-0.46,10.59, -0.08,0.00,-0.01
1000,0.66,-0.08,10.63, -0.13,-0.01,-0.01
1001,0.60,-0.97,10.57, -0.05,-0.01,0.02
1002,1.97,-1.26,10.60, -0.05,-0.01,-0.03
1003,-0.11,-1.16,10.79, 0.08,-0.13,-0.02
1004,1.29,-0.96,10.64, 0.22,-0.19,-0.00
1005,3.51,2.18,10.34, -0.09,-0.03,-0.09
1006,0.03,-0.34,10.79, -0.15,0.07,-0.00
1007,1.57,-0.80,10.61, -0.08,0.01,0.03
1008,1.78,-0.69,10.56, -0.12,0.02,0.00
1009,1.50,-0.34,10.62, -0.15,0.05,-0.01
1010,1.52,-0.56,10.48, -0.18,0.09,-0.02
1011,0.91,-0.72,10.68, -0.18,0.07,-0.00
1012,0.35,-1.60,10.70, -0.07,-0.04,-0.00
1013,1.32,-0.22,10.74, -0.04,-0.07,-0.01
1014,1.81,0.00,10.62, -0.11,0.03,0.01
1015,1.16,-1.04,10.82, -0.18,0.07,0.00
1016,1.42,-1.18,10.58, -0.06,-0.04,-0.01
1017,0.90,-0.02,10.62, -0.06,0.06,0.03
1018,1.82,-0.87,10.47, -0.04,0.06,0.10
1019,0.91,-1.25,10.45, -0.04,0.06,0.09
1020,2.08,-0.60,10.54, -0.08,-0.01,-0.02
1021,1.43,-0.65,10.58, -0.02,0.13,0.20
1022,0.54,0.13,10.38, 0.02,0.13,-0.21
1023,0.39,-1.11,10.50, 0.16,-0.01,-0.03
1024,0.88,-0.08,11.37, 0.31,-0.01,0.15
1025,1.07,0.81,12.27, 0.14,-0.02,-0.16
1026,1.34,0.47,11.94, 0.06,0.06,-0.26
1027,0.23,-0.47,12.95, 0.30,0.05,0.24
1028,0.98,0.71,13.27, 0.25,0.14,0.23
1029,0.51,2.02,13.27, 0.05,0.26,-0.16
1030,0.44,1.79,12.82, -0.05,0.39,-0.35
1031,-0.06,1.51,12.32, -0.05,0.51,-0.21
1032,0.01,2.08,12.07, -0.09,0.59,-0.06
1033,-0.70,2.51,12.42, -0.18,0.60,-0.12
1034,-1.45,2.62,12.73, -0.18,0.41,-0.09
1035,-1.25,1.58,11.36, 0.33,0.14,0.30
1036,-0.28,1.75,11.07, 0.63,0.16,0.47
1037,-0.70,2.21,11.22, 0.85,0.20,0.52
1038,-1.12,1.29,10.21, 0.97,0.26,0.63
1039,-0.70,0.47,9.68, 1.19,0.27,0.82
1040,-0.86,0.48,9.80, 1.24,0.28,0.93
1041,-0.88,1.60,9.68, 1.16,0.13,0.90
1042,-0.79,0.96,9.67, 0.97,0.10,0.76
1043,-0.84,0.36,9.65, 0.99,0.06,0.93
1044,-0.22,0.85,9.01, 0.81,0.10,0.89
1045,-0.24,1.44,9.08, 0.39,0.24,0.59
1046,-0.09,1.31,8.86, 0.05,0.22,0.43
1047,-0.66,0.98,8.86, -0.08,0.11,0.39
1048,0.05,1.62,9.03, -0.12,-0.04,0.48
1049,0.14,1.81,9.43, -0.21,-0.03,0.36
1050,0.66,2.40,9.11, -0.28,-0.07,0.31
1051,0.52,2.15,9.06, -0.46,-0.07,0.17
1052,0.17,1.32,9.82, -0.49,-0.15,0.19
1053,0.02,1.74,10.34, -0.43,-0.33,0.22
1054,0.32,2.07,10.03, -0.40,-0.33,0.22
1055,1.04,1.75,9.43, -0.44,-0.16,0.18
1056,0.87,1.69,9.77, -0.47,-0.12,0.17
1057,0.68,1.80,10.15, -0.58,-0.17,0.08
1058,0.54,1.70,9.96, -0.71,-0.19,0.01
1059,1.07,1.70,9.83, -0.77,-0.06,0.09
1060,1.30,1.64,10.01, -0.80,0.15,0.03
1061,0.55,1.42,10.68, -0.75,0.26,-0.17
1062,-0.07,0.57,11.17, -0.69,0.05,-0.43
1063,-0.33,-0.12,10.98, -0.39,-0.19,-0.20
1064,0.40,0.41,10.67, -0.21,-0.01,-0.19
1065,0.34,0.65,10.75, -0.16,0.14,-0.22
1066,-0.55,0.41,11.20, -0.10,0.12,-0.19
1067,-0.01,0.54,10.70, -0.13,0.09,-0.27
1068,-0.15,0.17,10.57, -0.14,0.02,-0.31
1069,-0.38,0.12,10.71, -0.13,-0.09,-0.21
1070,-0.02,0.87,10.51, -0.22,-0.17,-0.25
1071,0.00,0.26,10.63, -0.27,-0.26,-0.32
1072,0.18,0.26,10.70, -0.17,-0.40,-0.27
1073,0.66,0.94,10.45, -0.04,-0.44,-0.26
1074,0.84,0.47,10.58, 0.05,-0.38,-0.28
1075,0.62,0.32,11.01, 0.12,-0.37,-0.23
1076,0.78,0.47,11.11, 0.13,-0.30,-0.27
1077,0.63,0.44,10.84, 0.09,-0.20,-0.31
1078,0.51,0.21,10.57, 0.07,-0.14,-0.28
1079,0.80,0.75,10.40, -0.02,-0.03,-0.29
1080,0.75,0.54,10.36, -0.10,0.07,-0.35
1081,0.61,0.51,10.22, -0.08,0.07,-0.33
1082,0.97,0.63,10.02, -0.07,0.09,-0.35
1083,0.17,0.79,10.49, -0.05,-0.05,-0.34
1084,0.44,0.85,10.55, -0.01,-0.18,-0.36
1085,0.81,0.38,10.23, 0.12,-0.11,-0.35
1086,0.77,0.71,10.52, 0.25,-0.04,-0.23
1087,0.66,1.12,10.63, 0.18,-0.17,-0.32
1088,0.68,0.14,10.47, 0.18,-0.14,-0.38
1089,0.64,0.05,10.50, 0.32,-0.09,-0.26
1090,1.34,1.01,10.55, 0.38,-0.03,-0.25
1091,1.22,1.20,10.75, 0.29,0.05,-0.39
1092,0.93,0.89,10.22, 0.26,0.10,-0.44
1093,1.13,0.26,10.03, 0.27,0.13,-0.39
1094,1.15,0.43,10.52, 0.21,0.12,-0.32
1095,1.49,0.62,10.35, 0.04,0.22,-0.48
1096,1.31,-0.27,10.20, 0.09,0.18,-0.43
1097,1.26,0.07,10.67, 0.00,0.07,-0.40
1098,1.38,0.39,10.95, -0.32,0.02,-0.66
1099,1.64,-0.13,11.31, -0.44,-0.06,-0.64
1100,-0.07,0.35,11.36, -0.36,-0.38,-0.61
1101,0.25,1.70,10.12, -0.43,-0.48,-0.60
1102,1.77,1.81,10.30, -0.55,-0.35,-0.59
1103,1.41,1.45,11.32, -0.48,-0.21,-0.55
1104,0.78,0.95,11.58, -0.38,-0.10,-0.49
1105,0.19,0.57,11.63, -0.16,-0.06,-0.30
1106,0.09,1.04,11.67, 0.01,-0.13,-0.12
1107,0.78,1.62,11.44, -0.04,-0.18,-0.21
1108,0.74,1.35,11.45, -0.04,-0.17,-0.27
1109,0.34,0.74,11.22, 0.05,-0.07,-0.12
1110,0.43,1.49,11.53, 0.09,0.01,-0.01
1111,0.84,1.83,11.52, -0.02,0.03,-0.15
1112,0.77,1.75,10.91, -0.11,0.13,-0.28
1113,0.31,0.91,10.58, -0.09,0.25,-0.24
1114,0.41,0.80,10.46, -0.01,0.25,-0.11
1115,0.04,1.43,10.72, -0.03,0.15,-0.11
1116,0.65,1.49,10.11, -0.10,0.11,-0.20
1117,0.94,0.96,10.03, -0.13,0.20,-0.22
1118,0.48,0.95,10.27, -0.08,0.16,-0.17
1119,0.08,0.67,10.79, 0.07,0.05,-0.09
1120,0.52,1.13,10.60, 0.16,0.01,-0.11
1121,0.82,1.58,10.47, 0.16,0.07,-0.17
1122,0.50,1.09,10.06, 0.15,0.10,-0.18
1123,0.41,1.10,10.34, 0.13,0.07,-0.09
1124,0.39,1.56,10.34, 0.04,0.02,-0.16
1125,0.54,1.19,10.25, 0.02,-0.06,-0.21
1126,0.30,1.40,10.62, 0.04,-0.17,-0.16
1127,0.26,1.48,10.81, 0.09,-0.19,-0.11
1128,0.84,1.75,10.60, 0.08,-0.14,-0.16
1129,0.56,1.32,10.67, 0.03,-0.05,-0.18
1130,0.68,1.52,11.11, -0.05,-0.07,-0.19
1131,0.52,1.58,11.18, -0.11,-0.08,-0.22
1132,0.75,1.18,10.54, -0.14,0.09,-0.30
1133,0.21,0.96,10.29, -0.07,0.20,-0.22
1134,0.38,0.98,10.14, -0.07,0.22,-0.22
1135,-0.03,0.87,10.32, -0.07,0.11,-0.26
1136,-0.59,1.20,10.53, -0.10,-0.07,-0.09
1137,0.30,1.80,9.93, -0.14,-0.07,0.03
1138,0.27,2.32,11.15, -0.18,-0.14,0.09
1139,0.29,2.58,12.40, -0.15,-0.34,0.09
1140,0.92,3.12,12.19, -0.15,-0.25,-0.07
1141,1.34,2.25,11.22, -0.13,0.20,-0.24
1142,1.10,1.07,9.94, -0.07,0.62,-0.40
1143,-0.28,0.09,9.57, 0.04,0.51,-0.35
1144,-0.90,1.09,9.68, 0.12,0.04,-0.19
1145,0.58,1.12,9.35, -0.04,-0.01,-0.27
1146,0.49,0.80,9.56, -0.19,0.21,-0.35
1147,-0.15,0.78,10.33, -0.27,0.26,-0.36
1148,-0.75,1.68,11.17, -0.48,0.05,-0.43
1149,-0.93,0.99,11.41, -0.53,-0.23,-0.33
1150,0.18,1.82,12.05, -0.33,-0.38,-0.14
1151,1.17,1.69,12.09, -0.24,-0.09,-0.32
1152,0.45,1.25,11.58, -0.22,0.26,-0.47
1153,-0.29,0.68,10.73, -0.10,0.37,-0.37
1154,-0.54,0.85,11.05, -0.05,0.15,-0.21
1155,-0.22,1.27,11.18, -0.06,-0.09,-0.25
1156,-0.49,1.25,11.09, -0.02,-0.24,-0.17
1157,-0.21,1.22,10.74, 0.07,-0.17,-0.04
1158,-0.29,1.02,10.60, 0.10,0.03,0.03
1159,-0.61,1.19,10.97, 0.03,0.05,0.09
1160,-0.74,2.01,11.12, -0.12,-0.07,0.01
1161,-0.56,1.72,10.91, -0.24,-0.08,-0.15
1162,-0.27,0.97,10.38, -0.10,0.07,0.04
1163,-0.27,1.46,10.03, -0.02,0.20,0.03
1164,-0.17,1.28,10.24, -0.01,0.15,-0.01
1165,-0.04,1.33,10.06, -0.01,0.10,0.03
1166,-0.18,1.17,9.73, -0.09,0.11,-0.00
1167,-0.35,0.66,9.79, -0.11,0.02,0.04
1168,-0.51,1.52,10.11, -0.08,-0.18,0.10
1169,0.21,1.64,10.34, -0.13,-0.25,0.01
1170,0.52,0.68,9.88, -0.06,-0.06,0.00
1171,-0.40,1.15,10.76, 0.06,-0.11,0.08
1172,-0.66,1.82,11.04, 0.11,-0.25,0.12
1173,-0.09,1.73,11.58, 0.13,-0.26,0.07
1174,0.30,1.62,11.62, 0.11,-0.16,-0.08
1175,0.33,1.14,10.48, 0.22,-0.01,-0.02
1176,-0.04,2.06,10.27, 0.18,0.22,-0.10
1177,-0.32,1.79,9.90, -0.01,0.37,-0.25
1178,-1.39,1.38,10.48, -0.10,0.02,-0.07
1179,-0.62,1.24,11.31, -0.18,-0.34,0.13
1180,0.05,1.63,11.46, -0.22,-0.38,0.21
1181,0.36,2.19,11.19, -0.23,-0.20,0.15
1182,0.05,2.46,11.70, -0.23,-0.10,0.04
1183,0.69,2.02,11.05, -0.13,-0.05,0.06
1184,-0.41,1.46,10.49, 0.01,0.23,0.21
1185,0.61,0.57,10.24, 0.14,0.20,0.24
1186,-1.05,1.07,10.61, 0.14,-0.09,0.10
1187,-0.59,1.30,10.73, 0.15,-0.42,0.15
1188,0.73,1.69,10.38, 0.07,-0.38,0.12
1189,0.33,1.47,10.03, 0.01,-0.13,0.20
1190,0.02,1.68,10.16, -0.07,-0.01,0.13
1191,0.19,1.41,10.30, -0.12,-0.04,0.13
1192,0.02,2.07,11.23, -0.21,-0.14,0.07
1193,0.37,1.92,10.76, -0.21,-0.12,0.08
1194,0.75,2.24,11.09, -0.21,-0.02,0.07
1195,0.03,2.17,11.25, -0.20,-0.02,-0.01
1196,-0.08,1.53,11.36, -0.09,-0.02,0.03
1197,0.17,1.67,11.15, -0.00,0.04,0.03
1198,0.43,1.82,10.86, 0.03,0.11,0.01
1199,0.48,1.47,10.19, -0.00,0.25,-0.04
1200,0.22,1.55,10.10, -0.08,0.26,0.03
1201,-0.35,1.54,10.57, -0.16,0.08,0.02
1202,-0.10,1.80,10.60, -0.20,-0.17,0.01
1203,0.17,1.78,10.57, -0.13,-0.21,-0.01
1204,0.12,1.75,10.32, -0.00,-0.12,0.08
1205,0.62,2.13,10.73, 0.03,-0.00,0.07
1206,0.29,1.95,11.02, 0.00,0.05,0.00
1207,0.24,1.92,10.83, -0.04,0.02,-0.04
1208,0.35,1.72,10.31, -0.09,0.03,-0.03
1209,0.23,1.68,10.30, -0.08,0.01,0.01
1210,0.01,1.68,10.72, -0.09,-0.09,-0.03
1211,0.23,1.55,10.80, -0.04,-0.14,-0.01
1212,0.60,1.71,10.64, -0.01,-0.05,0.01
1213,0.48,2.04,10.96, -0.06,0.05,-0.02
1214,0.28,2.00,10.78, -0.13,0.08,-0.06
1215,0.25,1.55,10.56, -0.11,0.09,-0.11
1216,0.32,1.73,10.38, -0.05,0.04,-0.06
1217,0.04,1.79,10.28, 0.01,-0.07,-0.01
1218,0.05,1.71,10.47, 0.01,-0.12,-0.01
1219,0.11,1.78,10.67, -0.01,-0.12,-0.04
1220,0.14,1.44,10.42, -0.03,-0.06,-0.07
1221,0.08,1.42,10.46, 0.03,-0.06,0.01
1222,0.24,1.58,10.50, 0.06,-0.14,0.09
1223,0.06,1.60,10.38, 0.04,-0.15,0.18
1224,0.14,2.01,10.38, 0.09,-0.24,0.14
1225,0.01,1.98,10.54, 0.07,-0.21,0.02
1226,-0.00,1.98,11.04, 0.06,-0.15,0.06
1227,0.29,2.12,10.95, -0.08,-0.10,0.00
1228,0.35,2.17,10.98, -0.20,0.00,-0.06
1229,0.36,2.12,11.02, -0.21,0.08,-0.12
1230,0.46,1.93,11.08, -0.19,0.16,-0.10
1231,0.15,1.71,10.69, -0.16,0.13,-0.11
1232,0.04,1.75,10.43, -0.08,0.10,-0.04
1233,0.06,1.58,10.55, -0.05,0.01,0.01
1234,0.33,1.48,10.76, -0.03,-0.09,0.03
1235,0.52,1.80,10.62, -0.05,-0.06,-0.02
1236,0.29,1.83,10.32, -0.05,0.12,-0.08
1237,-0.15,1.75,10.29, -0.00,0.16,-0.02
1238,-0.15,1.58,10.24, -0.05,0.03,0.02
1239,0.00,1.95,10.73, -0.09,-0.10,0.03
1240,0.47,1.87,10.65, -0.09,-0.07,-0.02
1241,0.07,1.44,10.36, -0.04,0.02,0.00
1242,0.05,1.53,10.42, 0.03,0.01,0.04
1243,0.06,1.75,10.73, -0.02,-0.04,0.03
1244,-0.02,1.84,10.86, -0.10,-0.09,0.01
1245,0.11,2.02,10.77, -0.12,-0.01,-0.01
1246,0.53,1.81,10.35, -0.09,0.15,-0.01
1247,0.33,1.85,10.27, -0.09,0.18,-0.01
1248,-0.19,2.01,10.47, -0.13,0.05,-0.05
1249,0.18,1.59,10.50, -0.13,-0.09,-0.02
1250,0.23,1.38,10.55, -0.09,-0.05,0.02
1251,0.45,1.80,10.49, -0.07,-0.01,0.02
1252,0.15,1.81,10.50, -0.09,0.03,-0.01
1253,0.25,2.04,10.69, -0.16,-0.02,-0.07
1254,-0.05,1.74,10.73, -0.15,-0.05,-0.09
1255,0.17,1.62,10.49, -0.10,-0.02,-0.07
1256,0.18,1.72,10.52, -0.07,0.04,0.00
1257,0.14,1.71,10.75, -0.05,-0.01,0.01
1258,0.51,1.98,10.39, -0.07,-0.00,-0.06
1259,0.16,1.66,10.47, -0.07,0.04,-0.07
1260,-0.04,1.56,10.49, -0.04,-0.00,-0.04
1261,-0.02,1.66,10.29, -0.07,-0.02,-0.02
1262,0.12,1.36,10.04, -0.10,0.01,0.00
1263,0.01,1.61,10.56, -0.08,-0.04,0.09
1264,0.22,2.02,10.84, -0.14,-0.10,0.03
1265,0.31,1.86,10.77, -0.16,-0.06,-0.04
1266,0.15,1.98,10.35, -0.13,0.03,-0.06
1267,0.03,1.53,10.73, -0.07,-0.00,-0.04
1268,-0.06,1.32,10.78, 0.04,-0.14,0.05
1269,-0.09,1.36,10.75, 0.08,-0.13,0.08
1270,0.34,1.77,10.39, 0.04,-0.06,0.11
1271,0.35,1.91,10.70, -0.06,-0.00,0.06
1272,0.30,1.86,10.67, -0.17,-0.00,0.01
1273,0.27,1.91,10.69, -0.21,0.00,-0.01
1274,0.30,2.03,10.63, -0.18,0.05,-0.02
1275,0.55,1.49,10.52, -0.03,0.04,0.01
1276,0.37,1.42,10.43, 0.07,-0.00,0.04
1277,0.17,1.73,10.55, 0.05,-0.04,0.02
1278,0.20,1.61,10.71, -0.03,-0.09,0.05
1279,0.28,2.11,11.04, -0.15,-0.07,-0.01
1280,0.17,1.66,10.91, -0.17,-0.03,-0.03
1281,0.15,1.72,10.81, -0.11,0.03,0.02
1282,0.23,1.57,10.48, -0.06,0.04,0.04
1283,0.03,1.74,10.93, -0.05,-0.01,0.06
1284,0.18,2.01,10.95, -0.09,-0.06,0.03
1285,0.34,1.96,10.79, -0.11,-0.02,-0.02
1286,0.18,1.90,10.31, -0.11,0.07,0.00
1287,0.23,1.79,10.21, -0.11,0.09,0.00
1288,0.05,1.95,10.52, -0.12,-0.01,-0.04
1289,-0.00,1.74,10.60, -0.08,-0.11,-0.01
1290,0.49,1.70,10.10, -0.03,-0.11,0.01
1291,0.21,1.83,10.50, -0.04,-0.05,-0.02
1292,0.03,1.80,10.49, -0.10,-0.03,-0.07
1293,0.04,1.53,10.39, -0.11,-0.05,-0.06
1294,-0.09,1.34,10.35, -0.11,-0.05,-0.02
1295,0.09,1.60,10.73, -0.12,-0.06,-0.01
1296,0.11,1.63,10.81, -0.11,-0.04,-0.01
1297,-0.24,1.43,10.66, -0.09,-0.02,0.02
1298,0.08,1.35,10.65, -0.08,-0.03,0.08
1299,0.39,1.42,10.31, -0.10,0.03,0.11
1300,0.34,1.88,10.52, -0.17,0.06,0.06
1301,0.52,1.74,10.36, -0.22,0.03,0.08
1302,0.44,2.00,10.38, -0.27,0.01,0.03
1303,0.48,1.70,10.44, -0.23,0.01,-0.00
1304,0.23,2.01,10.71, -0.13,-0.08,-0.03
1305,0.17,1.88,10.96, -0.06,-0.14,-0.02
1306,0.10,1.74,10.91, 0.01,-0.12,0.01
1307,0.48,1.65,10.53, -0.02,0.03,-0.06
1308,0.32,1.10,10.37, -0.02,0.15,-0.05
1309,0.11,1.28,10.61, -0.04,0.04,-0.01
1310,-0.31,1.10,10.94, -0.09,-0.11,0.03
1311,0.42,1.17,10.61, -0.12,-0.15,0.11
1312,0.56,1.84,10.86, -0.21,-0.04,0.03
1313,0.58,1.60,10.41, -0.22,0.07,-0.01
1314,0.39,1.85,10.73, -0.16,0.07,-0.01
1315,0.48,1.81,10.59, -0.14,0.01,-0.04
1316,0.20,1.20,10.23, -0.05,-0.02,-0.02
1317,-0.08,1.16,10.40, 0.01,-0.10,0.04
1318,-0.03,1.17,10.66, 0.00,-0.16,0.12
1319,0.17,1.50,11.03, -0.08,-0.14,0.08
1320,0.41,1.83,10.59, -0.16,-0.01,0.01
1321,0.36,1.34,10.27, -0.18,0.12,0.01
1322,0.40,1.22,10.30, -0.16,0.11,0.03
1323,-0.11,1.20,10.71, -0.12,-0.03,0.05
1324,0.10,1.00,10.45, -0.08,-0.12,0.07
1325,0.28,1.17,10.28, -0.03,-0.10,0.18
1326,0.20,1.85,10.88, -0.14,-0.07,0.11
1327,0.50,1.83,11.14, -0.23,-0.06,0.05
1328,0.77,1.92,10.80, -0.22,0.05,-0.05
1329,0.73,1.50,10.14, -0.15,0.18,-0.08
1330,0.39,1.30,10.54, -0.09,0.17,-0.06
1331,0.21,1.29,10.34, -0.10,-0.00,-0.02
1332,0.20,1.16,10.16, -0.12,-0.13,0.01
1333,0.05,1.20,10.70, -0.10,-0.25,0.09
1334,0.39,1.38,11.00, -0.12,-0.25,0.07
1335,0.40,1.62,11.05, -0.17,-0.17,0.02
1336,0.32,1.67,10.92, -0.14,-0.05,0.02
1337,0.60,1.33,10.50, -0.10,0.04,0.01
1338,0.01,1.23,10.97, -0.03,0.03,0.03
1339,0.25,1.28,10.91, -0.02,-0.07,0.06
1340,0.54,1.25,10.55, -0.08,-0.09,0.06
1341,0.45,1.24,11.26, -0.11,-0.10,0.06
1342,0.74,0.81,11.68, -0.10,-0.15,0.02
1343,1.24,0.88,10.87, -0.01,-0.02,-0.00
1344,1.11,0.86,10.27, 0.08,0.21,0.06
1345,0.62,1.10,9.92, 0.02,0.21,0.05
1346,0.24,1.29,10.12, -0.10,0.03,0.04
1347,0.34,1.31,10.65, -0.20,-0.21,-0.00
1348,0.70,1.18,10.19, -0.18,-0.21,0.04
1349,0.50,1.84,10.11, -0.21,-0.03,-0.03
1350,-0.04,1.02,10.44, -0.20,0.09,-0.04
1351,-0.47,1.23,10.96, -0.11,-0.02,0.12
1352,-0.21,2.19,11.50, -0.17,-0.09,0.09
1353,0.17,2.20,11.01, -0.28,0.02,-0.01
1354,-0.10,2.78,11.71, -0.30,0.04,-0.04
1355,-0.73,2.62,12.75, -0.24,-0.25,-0.04
1356,-0.96,2.69,12.73, -0.11,-0.43,-0.09
1357,-0.75,2.40,12.22, 0.01,-0.35,-0.00
1358,-0.51,2.00,11.23, 0.18,-0.08,-0.01
1359,-0.84,1.95,11.48, 0.31,-0.01,0.16
1360,-1.58,2.08,10.82, 0.43,-0.08,0.66
1361,-0.34,1.68,9.25, 0.34,0.05,0.59
1362,-2.86,4.90,6.55, 0.21,0.09,0.63
1363,-0.78,-1.13,0.24, 0.02,-0.02,0.27
1364,0.60,0.27,0.93, 0.06,0.09,0.51
1365,-0.15,0.04,0.96, 0.05,0.08,0.49
1366,0.06,0.29,0.94, 0.04,0.09,0.48
1367,-0.25,0.23,1.01, 0.04,0.09,0.49
1368,-0.05,0.24,0.85, 0.04,0.10,0.50
1369,-0.01,0.19,0.95, 0.03,0.12,0.51
1370,-0.14,0.19,0.99, 0.03,0.12,0.51
1371,-0.01,0.23,0.96, 0.02,0.13,0.51
1372,-0.10,0.16,0.92, 0.02,0.14,0.51
1373,0.01,0.15,1.00, 0.01,0.16,0.51
1374,-0.01,0.19,0.97, 0.01,0.18,0.51
1375,-0.04,0.18,1.08, 0.01,0.19,0.51
1376,0.02,0.15,0.97, 0.01,0.21,0.50
1377,0.03,0.24,1.03, 0.01,0.23,0.49
1378,-0.11,0.18,0.97, 0.02,0.25,0.48
1379,-0.03,0.22,0.98, 0.02,0.28,0.47
1380,-0.05,0.24,1.05, 0.02,0.31,0.45
1381,-0.06,0.28,0.96, 0.03,0.34,0.42
1382,0.02,0.23,1.13, 0.04,0.38,0.38
1383,-0.05,0.28,1.04, 0.05,0.42,0.34
1384,-0.09,0.22,1.11, 0.06,0.46,0.30
1385,-0.06,0.24,1.04, 0.07,0.51,0.25
1386,-0.04,0.23,1.03, 0.09,0.57,0.19
1387,-0.11,0.21,1.09, 0.11,0.62,0.13
1388,-0.10,0.26,1.19, 0.12,0.69,0.05
1389,-0.08,0.27,1.24, 0.15,0.77,-0.04
1390,-0.22,0.32,1.20, 0.17,0.85,-0.13
1391,-0.09,0.29,1.26, 0.19,0.94,-0.24
1392,-0.22,0.30,1.25, 0.22,1.05,-0.36
1393,-0.17,0.29,1.30, 0.25,1.18,-0.49
1394,-0.27,0.26,1.34, 0.28,1.34,-0.64
1395,-0.25,0.25,1.36, 0.32,1.55,-0.82
1396,-0.45,0.39,1.34, 0.34,1.78,-1.00
1397,-0.26,0.45,1.36, 0.37,2.00,-1.17
1398,-0.79,0.18,1.39, 0.37,2.24,-1.35
1399,-1.00,0.56,1.45, 0.39,2.48,-1.57
1400,-2.04,1.65,1.56, 0.29,2.64,-1.89
1401,-2.62,2.22,1.64, 0.02,2.68,-2.17
1402,-2.40,-0.87,1.61, -0.19,2.72,-2.22
1403,-4.35,0.05,1.41, -0.10,2.63,-2.05
1404,-2.97,-1.05,1.56, -0.02,2.52,-1.70
1405,-4.37,0.37,1.52, -0.12,2.46,-1.66
1406,-4.34,0.15,1.34, -0.08,2.31,-1.41
1407,-4.58,-0.16,1.39, -0.10,2.19,-0.98
1408,-5.01,-0.47,1.24, -0.09,2.03,-0.54
1409,-5.10,0.03,1.24, -0.04,1.81,-0.13
1410,-5.38,-0.33,1.35, 0.03,1.57,0.28
1411,-5.40,-0.11,1.39, 0.10,1.34,0.55
1412,-5.76,0.01,1.31, 0.18,1.10,0.92
1413,-5.92,1.09,1.41, 0.14,0.79,1.20
1414,-5.93,0.73,1.23, 0.10,0.47,1.43
1415,-5.97,0.62,1.18, 0.11,0.13,1.56
