Step,AccX,AccY,AccZ,GyrX,GyrY,GyrZ
0,-0.06,-0.33,10.59, -0.10,-0.07,0.02
1,0.50,-0.22,10.64, 0.05,-0.12,0.19
2,0.40,0.85,10.89, -0.02,-0.15,0.14
3,0.54,0.25,10.86, -0.07,-0.12,0.07
4,1.59,-0.13,10.61, 0.03,-0.15,0.28
5,1.03,0.29,10.71, -0.05,-0.02,0.03
6,0.62,0.30,10.72, -0.05,0.02,0.01
7,0.28,0.74,10.74, -0.04,-0.03,0.03
8,0.41,0.48,10.55, -0.11,-0.05,0.01
9,0.78,-0.05,10.80, -0.09,-0.11,0.03
10,0.93,0.24,10.79, -0.02,-0.05,0.06
11,0.20,0.96,10.86, -0.08,-0.07,0.01
63,1.16,0.76,10.70, -0.09,-0.02,0.01
64,0.36,0.06,10.67, -0.09,-0.02,0.00
65,-0.22,-0.17,10.73, -0.06,-0.10,0.02
66,1.17,-0.35,10.88, -0.22,0.03,-0.01
67,0.61,0.24,10.55, -0.09,-0.01,-0.01
68,0.94,0.25,10.71, -0.05,-0.02,0.00
69,0.91,0.30,10.68, -0.07,0.01,-0.01
70,0.76,0.13,10.69, -0.05,0.01,-0.01
71,0.51,0.08,10.73, -0.05,0.02,-0.01
72,0.80,0.24,10.70, -0.03,0.02,-0.01
73,0.38,0.23,10.66, -0.02,0.01,-0.01
74,0.50,0.46,10.70, -0.05,0.01,-0.01
75,0.63,0.35,10.67, -0.05,-0.01,-0.00
76,0.61,0.25,10.62, -0.05,-0.00,-0.00
77,0.70,0.33,10.73, -0.06,0.00,-0.00
78,0.73,0.32,10.72, -0.03,-0.01,-0.00
79,0.49,0.19,10.74, -0.03,-0.01,-0.00
80,0.69,0.52,10.70, -0.05,-0.01,-0.00
81,0.56,0.46,10.60, -0.05,-0.00,-0.00
82,0.67,0.51,10.79, -0.09,-0.00,-0.00
83,0.18,0.21,10.62, -0.14,-0.03,0.01
84,0.45,-0.13,10.79, -0.10,-0.05,0.01
85,0.81,0.34,10.77, -0.07,-0.05,0.02
86,0.62,0.32,10.69, -0.07,-0.04,0.01
87,0.46,0.06,10.67, -0.05,-0.03,0.01
88,0.59,0.09,10.69, -0.03,-0.07,0.03
89,0.84,0.45,10.65, -0.01,-0.05,0.02
90,0.98,0.59,10.71, -0.05,0.01,0.02
91,0.72,0.14,10.69, -0.05,0.02,-0.01
92,0.36,0.30,10.63, -0.03,0.01,-0.01
93,0.74,0.50,10.71, -0.05,0.00,0.01
94,0.71,0.50,10.61, -0.02,-0.00,0.01
95,0.66,0.58,10.62, -0.05,0.02,-0.01
96,0.02,0.62,10.58, -0.09,0.01,-0.02
97,0.66,0.21,10.89, -0.21,0.02,-0.04
98,0.09,0.28,10.44, -0.19,-0.03,-0.05
99,0.34,-0.19,10.73, -0.13,-0.06,0.01
100,0.53,0.47,10.64, -0.11,-0.07,0.02
101,0.58,0.54,10.68, -0.12,-0.06,0.03
102,0.54,0.01,10.69, -0.11,-0.07,0.02
103,1.10,0.58,10.72, -0.07,-0.05,0.04
104,0.70,0.10,10.66, -0.09,-0.01,0.02
105,0.39,0.11,10.68, -0.07,-0.04,0.03
106,0.80,0.21,10.67, -0.02,-0.05,0.05
107,1.02,0.71,10.71, -0.05,-0.01,0.04
108,0.08,0.28,10.69, -0.04,-0.06,0.04
109,1.08,0.48,10.71, -0.06,-0.09,0.06
110,1.24,0.66,10.70, -0.13,-0.01,0.04
111,0.49,-0.32,10.65, -0.11,0.04,0.01
112,0.50,-0.21,10.57, 0.01,0.01,0.01
113,0.76,0.22,10.87, 0.03,-0.01,0.04
114,0.70,1.01,10.75, -0.01,0.01,0.01
115,0.70,0.61,10.75, -0.08,0.01,-0.00
116,0.74,0.87,10.66, -0.14,0.03,-0.00
117,0.64,0.20,10.70, -0.15,0.03,-0.02
118,0.43,0.01,10.67, -0.10,-0.01,-0.01
119,1.15,0.51,10.63, -0.06,-0.06,0.02
120,0.52,0.70,10.69, -0.07,-0.06,0.02
121,0.32,0.41,10.62, -0.10,-0.08,0.01
122,0.71,0.23,10.62, -0.10,-0.08,0.01
123,0.90,0.32,10.67, -0.08,-0.05,0.01
124,1.20,0.41,10.74, -0.10,-0.00,0.01
125,0.86,0.35,10.45, -0.10,0.04,-0.01
126,0.70,0.03,10.76, -0.10,0.06,-0.02
127,0.61,-0.12,10.63, -0.06,0.03,-0.02
128,0.28,0.65,10.71, -0.05,-0.04,-0.01
129,0.62,0.65,10.74, -0.10,-0.06,-0.00
130,0.81,-0.39,10.58, -0.02,-0.02,0.01
131,0.51,-0.44,10.95, 0.02,0.02,-0.03
132,2.12,-0.48,10.17, 0.07,0.14,-0.09
133,0.79,0.16,11.37, -0.10,0.41,-0.15
134,-3.53,5.93,7.10, -0.11,0.32,0.62
135,-2.11,-0.61,10.43, -0.22,0.21,0.20
136,-1.63,-1.01,10.65, 0.11,-0.30,-0.35
137,10.24,3.33,18.40, 0.07,-0.43,-0.63
138,-0.24,1.94,10.47, -0.58,-0.17,-0.40
139,1.45,0.36,10.94, -0.45,-0.05,0.02
140,0.62,-0.98,10.67, -0.20,-0.09,0.19
141,0.48,-0.80,10.57, -0.19,-0.05,-0.01
142,-0.17,-0.61,10.67, -0.16,-0.06,-0.37
143,-0.51,-1.13,10.79, -0.05,-0.18,-0.70
144,2.76,1.47,7.91, -0.20,0.08,-1.03
145,-0.96,-3.08,11.72, 0.00,0.52,-1.07
146,4.33,4.61,10.11, -0.16,0.05,-0.17
147,2.44,-1.16,10.13, -0.09,0.00,0.14
148,0.00,-1.16,10.58, 0.08,-0.03,0.01
149,-0.19,-0.14,11.14, 0.06,0.10,-0.05
150,1.74,0.47,10.79, 0.06,0.07,-0.03
151,0.91,0.33,10.62, 0.09,0.02,-0.01
152,-0.09,1.47,10.79, 0.01,0.07,-0.01
153,-0.29,1.45,10.64, -0.11,-0.06,0.00
154,1.28,0.36,11.10, -0.22,-0.10,0.02
155,-0.40,-0.21,10.82, -0.21,-0.09,0.03
156,0.10,-0.01,10.70, -0.22,-0.05,0.01
157,0.99,0.30,10.72, -0.21,-0.05,0.01
158,1.48,-1.13,10.38, -0.10,-0.02,0.01
159,0.87,0.19,10.52, 0.05,-0.01,-0.00
160,-0.38,-0.27,10.77, 0.04,0.02,-0.01
161,0.62,0.28,10.71, 0.03,0.06,-0.02
162,1.44,0.52,10.70, 0.04,0.04,-0.02
163,0.39,0.14,10.67, 0.07,0.02,-0.01
164,-0.65,0.60,10.51, -0.05,0.03,-0.02
165,5.49,0.32,10.43, -0.04,0.29,0.27
166,0.07,-2.22,10.39, 0.08,0.21,-0.27
167,1.77,0.15,9.32, -0.07,0.05,-1.72
168,0.59,0.83,11.24, -0.13,-0.27,-3.56
169,1.46,2.82,11.35, -0.98,-0.93,-3.82
170,2.37,-18.70,19.69, -1.20,-0.08,-4.53
171,1.01,1.90,10.86, -0.05,0.28,-4.02
172,-0.68,0.45,14.49, -0.34,0.17,-3.11
173,2.90,-0.09,11.14, -0.07,-0.08,0.29
174,-3.78,-6.92,15.41, 0.13,-0.00,-1.09
175,0.68,1.13,20.28, 0.34,0.29,-2.17
176,-4.13,3.86,19.91, -0.69,-0.42,-2.39
177,-1.08,0.77,16.69, -1.84,-0.83,-2.11
178,-0.50,-5.41,15.66, -1.84,-0.52,-3.05
179,-0.31,-9.15,14.96, -0.97,-0.06,-4.00
180,-0.54,-4.26,13.95, -0.50,0.40,-4.55
181,-1.05,-0.97,12.13, -0.60,0.62,-4.34
182,-1.35,0.73,11.71, -1.19,0.75,-4.32
183,-0.95,4.34,10.54, -1.94,0.53,-4.40
184,0.83,0.12,10.44, -2.62,0.37,-4.94
185,-1.64,-0.70,9.04, -2.13,0.28,-4.19
186,0.95,2.50,8.04, -1.83,0.59,-4.16
187,2.73,4.42,7.12, -1.89,1.19,-3.41
188,-1.29,-0.13,6.77, -1.60,1.36,-3.06
189,-1.45,-6.82,6.67, 0.14,1.40,-1.21
190,-0.09,-3.40,7.16, 1.66,0.99,0.25
191,-0.12,2.97,9.82, 1.59,0.69,0.32
192,-1.00,4.34,11.19, 0.51,0.38,0.34
193,0.45,1.40,10.56, -0.33,0.25,0.16
194,-1.67,-1.81,8.88, -0.55,-0.07,-0.19
195,-0.66,-1.26,9.44, -0.56,-0.89,-0.34
196,1.00,0.37,8.96, -0.59,-1.19,-1.06
197,1.71,-0.24,9.73, -0.76,-1.24,-1.14
198,1.26,-1.64,9.63, -0.76,-1.05,-1.09
199,2.21,-3.63,10.00, -0.48,-0.77,-0.59
200,1.82,2.43,10.06, -0.56,-0.63,-0.61
201,2.93,0.97,8.99, -1.52,-0.38,-0.87
202,2.70,-8.10,9.37, -1.14,-0.07,-1.01
203,1.45,-8.05,8.49, 0.05,0.04,-0.71
204,1.05,0.51,8.99, 0.31,-0.17,-1.18
205,1.83,0.22,9.39, -0.43,-0.63,-1.64
206,3.17,-5.54,8.71, -0.32,-0.99,-1.41
207,3.70,-3.46,8.98, 0.27,-0.75,-0.99
208,2.90,0.69,8.90, 0.12,-0.54,-0.80
209,3.09,-0.93,8.39, -0.02,-0.26,-0.69
210,3.51,-1.48,8.96, 0.08,-0.11,-0.49
211,2.92,-1.77,9.41, 0.10,0.06,-0.07
212,2.02,-1.43,9.25, 0.23,0.09,0.63
213,1.75,-0.30,8.87, 0.43,-0.05,1.24
214,2.14,0.28,9.01, 0.43,-0.27,1.57
215,7.07,-1.03,10.82, 0.38,0.00,1.93
216,9.93,1.88,8.91, 0.94,0.71,4.25
217,3.12,0.13,7.72, 1.66,1.23,6.02
218,3.46,-4.83,7.08, 2.12,1.53,5.70
219,7.66,-3.11,9.53, 2.91,1.84,6.08
220,-1.13,-4.30,9.71, 3.16,1.80,5.62
221,-1.26,-6.92,10.54, 3.05,0.27,4.46
222,6.44,-4.47,8.90, 2.59,0.01,1.90
223,2.16,-0.35,8.41, 2.57,0.29,2.65
224,-4.46,1.58,13.25, 2.73,0.32,3.40
225,-6.63,8.45,13.73, 1.38,-0.39,1.16
226,-3.35,4.00,11.33, -0.38,-1.30,0.72
227,0.15,3.21,9.98, -1.20,-1.34,0.97
228,0.53,-1.52,9.07, -1.28,-1.10,0.39
229,2.21,-3.99,10.00, -0.18,-0.74,-0.72
230,1.50,1.51,13.24, 0.14,-0.64,-1.46
231,3.84,-1.94,10.99, 0.00,-0.55,-1.83
232,5.64,-0.72,8.36, 0.15,-0.45,-0.13
233,8.63,0.90,10.55, -0.25,0.54,-1.58
234,3.44,-3.21,10.67, -0.05,0.84,-1.77
235,2.09,-0.51,10.65, 0.07,0.54,-1.48
236,1.67,-1.43,10.49, 0.29,0.12,-1.72
237,3.43,-0.15,9.51, 0.42,-0.05,-1.99
238,0.62,1.38,9.98, 0.28,-0.25,-2.05
239,2.86,3.02,9.92, -0.08,-0.39,-1.66
240,7.29,2.72,10.15, -0.41,0.08,-0.73
241,6.59,1.27,10.53, -0.68,0.99,-1.07
242,-0.66,-0.45,9.88, -0.60,1.02,-1.47
243,-6.19,2.37,9.90, -0.22,-0.23,-1.30
244,-0.53,2.45,8.08, 0.09,-1.22,-1.92
245,2.87,-0.47,10.42, 0.51,-0.49,-2.11
246,-4.80,4.98,10.89, 0.48,-0.23,-2.20
247,-4.64,5.84,10.43, -0.22,-1.01,-1.63
248,0.14,3.65,9.27, -1.01,-1.23,-1.27
249,2.07,1.19,12.84, -1.14,-0.38,-1.59
250,-5.69,1.56,10.90, -1.14,-0.01,-1.25
251,-8.50,3.55,11.68, -1.50,-1.21,-0.86
252,-3.06,-1.39,13.46, -1.59,-1.67,-0.14
253,0.87,-3.73,12.78, -0.94,-1.14,-0.07
254,-3.66,0.13,10.30, -0.50,-0.94,-0.43
255,-1.23,2.28,11.50, -1.17,-1.11,-0.38
256,-0.14,-1.57,11.95, -1.08,-0.79,-0.14
257,1.72,-3.05,11.15, -0.22,-0.01,-0.15
258,2.17,-1.16,10.25, 0.28,0.82,-0.26
259,-0.12,0.57,10.04, 0.12,1.38,-0.41
260,-2.65,-0.28,11.69, -0.06,1.17,-0.59
261,-4.58,0.38,11.34, -0.12,0.47,-0.53
262,-2.55,2.58,10.82, -0.47,-0.23,-0.38
263,0.08,0.52,10.38, -0.86,-0.15,-0.54
264,-0.15,-1.08,11.24, -0.68,-0.18,-0.30
265,-0.12,-1.36,12.25, -0.20,-0.15,-0.10
266,0.46,-1.23,11.34, 0.18,0.06,-0.12
267,0.32,1.04,10.50, 0.08,0.20,-0.27
268,-0.18,0.61,10.60, -0.18,0.15,-0.49
269,-0.49,-1.47,11.04, -0.03,0.09,-0.36
270,1.61,-0.18,10.30, 0.16,0.22,-0.36
271,0.45,-0.33,9.55, 0.12,0.39,-0.28
272,0.22,0.81,10.09, -0.08,0.24,-0.21
273,-1.00,-0.71,10.96, -0.06,-0.01,0.14
274,1.65,-0.91,11.13, 0.14,-0.02,0.12
275,1.83,-0.67,10.81, 0.24,0.23,-0.23
276,0.71,0.53,10.55, 0.14,0.24,-0.57
277,-0.49,1.02,10.98, -0.02,0.03,-0.55
278,0.08,0.57,10.84, -0.09,-0.03,-0.51
279,0.41,-0.00,10.26, -0.02,-0.05,-0.18
280,1.77,0.08,10.27, 0.07,0.22,-0.31
281,1.15,0.45,10.31, 0.07,0.40,-0.71
282,0.10,0.58,10.73, -0.03,0.41,-1.46
283,-0.93,0.41,10.32, -0.09,0.22,-1.33
284,0.10,1.54,9.92, -0.29,0.06,-1.36
285,1.18,-0.47,9.85, -0.38,0.19,-1.86
286,0.68,-0.23,10.53, -0.29,0.50,-2.07
287,-0.69,0.59,9.84, -0.31,0.37,-1.72
288,-1.26,0.92,11.01, -0.49,0.06,-1.60
289,-0.16,0.06,11.45, -0.54,-0.28,-1.24
290,0.33,-0.74,10.94, -0.38,-0.48,-1.10
291,0.52,-0.38,10.95, -0.27,-0.55,-1.04
292,1.12,0.01,10.97, -0.18,-0.48,-0.89
293,1.29,0.07,10.80, -0.11,-0.28,-0.59
294,1.51,0.24,10.45, -0.17,-0.01,-0.54
295,0.59,-0.97,10.92, -0.20,0.13,-0.74
296,0.27,-1.55,11.50, 0.04,0.01,-0.76
297,0.43,-0.27,11.12, 0.31,-0.06,-0.58
298,0.61,0.98,10.34, 0.24,-0.05,-0.27
299,1.15,1.19,10.67, -0.08,0.01,-0.42
300,0.86,0.24,10.75, -0.19,0.05,-0.23
301,0.21,-0.59,10.96, 0.01,0.04,-0.02
302,0.22,0.63,10.62, 0.11,0.04,0.20
303,1.43,0.73,10.41, -0.12,0.10,0.14
304,0.72,-0.56,11.00, -0.20,0.03,0.01
305,0.28,-0.75,11.01, 0.02,-0.14,0.11
306,0.59,0.54,10.94, 0.11,-0.15,0.29
307,1.20,0.79,9.97, -0.03,-0.00,0.36
308,1.39,0.05,10.35, -0.21,0.15,0.19
309,0.19,-0.36,10.83, -0.13,0.11,0.22
310,0.07,-0.03,10.54, 0.00,0.00,0.43
311,-0.00,0.91,10.20, -0.10,-0.12,0.46
312,1.07,0.33,10.50, -0.33,-0.15,0.41
313,0.91,-0.57,10.83, -0.30,-0.11,0.35
314,0.47,0.26,10.72, -0.19,-0.13,0.59
315,0.54,-0.09,10.55, -0.24,-0.12,0.76
316,0.75,-0.46,10.68, -0.31,-0.13,0.64
317,0.42,-0.83,10.93, -0.28,-0.16,0.51
318,0.57,-0.87,10.58, -0.09,-0.20,0.62
319,1.19,-0.36,10.44, -0.02,-0.04,0.62
320,0.69,0.20,10.44, -0.09,0.13,0.63
321,0.60,-0.31,10.63, -0.11,0.07,0.64
322,0.00,-0.81,10.63, -0.05,-0.13,0.83
323,1.05,-0.28,10.71, -0.07,-0.24,0.79
324,0.79,-0.42,10.82, -0.14,-0.21,0.86
325,0.33,-0.38,10.74, -0.09,-0.19,0.83
326,1.18,0.43,10.52, -0.11,-0.22,0.95
327,1.53,-0.36,10.43, -0.22,-0.13,1.01
328,0.58,-0.24,10.69, -0.23,-0.16,0.94
329,1.00,-0.91,10.91, -0.14,-0.06,0.96
330,1.38,-1.62,10.89, 0.16,0.14,1.01
331,1.64,-0.51,10.89, 0.36,0.46,0.83
332,0.03,0.29,10.57, 0.29,0.50,0.70
333,-0.80,0.54,10.57, 0.11,0.22,0.69
334,-0.28,0.22,10.70, -0.08,-0.03,0.54
335,-1.00,-0.24,10.83, -0.17,-0.33,0.68
336,1.82,-0.70,10.68, -0.13,-0.38,0.58
337,1.50,-0.69,10.77, -0.10,-0.09,0.31
338,0.47,-0.32,10.65, -0.06,-0.07,0.20
339,0.82,-0.31,10.50, -0.05,-0.14,0.26
340,1.41,-0.43,10.58, -0.06,-0.07,0.17
341,1.31,-0.59,10.73, 0.02,0.07,0.05
342,0.71,-0.03,10.69, 0.06,0.11,0.06
343,-0.21,-0.05,10.59, 0.00,0.00,0.21
344,0.45,-0.22,10.89, -0.08,-0.10,0.25
345,0.92,-0.36,10.81, -0.08,-0.12,0.12
346,1.03,-0.42,10.83, -0.09,-0.06,-0.02
347,0.77,-0.91,11.07, 0.01,0.01,-0.10
348,-0.67,-0.62,10.98, 0.10,-0.02,0.06
349,-0.48,0.46,11.06, 0.04,-0.14,0.29
350,0.43,-0.30,10.80, 0.04,-0.10,0.24
351,0.10,-0.38,10.82, 0.14,-0.01,0.09
352,-1.06,0.37,10.57, 0.15,-0.08,0.23
353,-0.35,0.75,10.66, 0.02,-0.22,0.50
354,0.73,-0.19,10.68, 0.05,-0.20,0.51
355,0.42,-0.35,10.69, 0.11,-0.11,0.39
356,-0.65,0.22,11.03, 0.12,-0.18,0.41
357,-0.06,0.37,10.99, 0.06,-0.26,0.56
358,-0.09,-0.42,10.86, 0.08,-0.26,0.60
359,-0.61,-0.80,10.99, 0.19,-0.26,0.57
360,-0.98,0.21,10.76, 0.23,-0.26,0.60
361,-1.74,0.89,10.63, 0.20,-0.35,0.74
362,-1.51,0.58,10.24, 0.13,-0.35,0.88
363,-1.25,-0.00,10.44, 0.14,-0.32,1.07
364,-0.96,0.25,10.46, 0.25,-0.25,1.10
365,-1.63,0.64,10.10, 0.27,-0.33,1.16
366,-1.70,0.69,9.99, 0.23,-0.41,1.29
367,-0.53,0.22,9.68, 0.20,-0.36,1.39
368,-0.36,0.53,9.21, 0.27,-0.19,1.45
369,-1.94,1.08,9.27, 0.19,-0.11,1.56
370,-2.02,1.48,9.04, 0.16,-0.24,1.77
371,-0.54,2.55,8.62, 0.14,-0.21,1.97
372,-0.30,2.21,8.45, -0.01,-0.06,2.08
373,-0.44,0.66,9.16, -0.06,-0.05,2.29
374,1.47,-0.29,9.16, 0.10,0.01,2.35
375,3.39,0.25,8.54, 0.25,0.39,2.12
376,0.78,0.81,8.08, 0.40,0.47,1.96
377,-0.55,3.03,8.58, 0.25,0.33,2.05
378,1.08,-0.17,9.90, 0.04,-0.03,2.11
379,5.28,-0.74,10.63, 0.04,0.31,1.71
380,1.84,-1.24,9.28, 0.44,0.55,1.42
381,-2.30,1.14,8.40, 0.77,0.33,1.67
382,-1.14,2.14,8.90, 0.30,-0.11,2.04
383,4.86,-0.64,10.43, -0.14,0.15,2.06
384,5.84,-2.27,10.98, -0.06,0.87,1.90
385,0.88,-1.81,10.74, 0.29,1.02,1.60
386,0.08,-0.53,10.07, 0.45,0.69,1.61
387,-0.35,-0.43,10.31, 0.37,0.50,1.68
388,1.56,-0.57,11.66, 0.32,0.64,1.55
389,2.46,-0.62,10.83, 0.32,1.01,1.02
390,-0.42,-0.03,10.51, 0.22,0.91,0.62
391,-0.64,-1.03,11.15, 0.26,0.46,0.81
392,-0.43,-0.44,11.52, 0.51,0.46,0.91
393,-3.43,2.17,11.07, 0.38,0.30,0.65
394,-2.82,2.24,11.03, -0.15,-0.41,0.35
395,0.73,0.79,11.10, -0.48,-0.81,0.56
396,3.45,-2.41,10.10, -0.29,-0.50,0.90
397,1.97,-1.43,10.72, 0.09,0.18,0.88
398,0.77,0.28,12.40, -0.07,0.60,0.70
399,1.65,-1.87,12.68, -0.09,0.90,0.69
400,4.92,-4.33,11.72, 0.47,1.70,0.39
401,1.75,-3.26,11.47, 0.88,2.66,-0.38
402,-9.23,0.93,14.18, 0.37,1.80,-0.42
403,-10.54,2.11,15.11, -0.57,-0.40,0.24
404,-2.21,-3.26,12.71, -0.94,-1.88,0.60
405,1.27,-3.59,11.14, -0.64,-1.75,0.45
406,2.43,-2.38,9.64, -0.47,-1.06,0.26
407,0.08,-0.75,10.13, -0.61,-0.51,0.32
408,-0.54,-1.47,11.96, -0.80,-0.32,0.41
409,0.70,-2.27,12.36, -0.60,-0.00,0.28
410,-0.81,-0.86,11.43, -0.45,0.12,0.14
411,-1.36,-0.08,11.18, -0.56,-0.10,0.24
412,-1.24,-1.03,10.72, -0.51,-0.27,0.37
413,-0.66,-0.10,11.08, -0.53,-0.30,0.39
414,-0.55,-0.51,10.71, -0.66,-0.41,0.43
415,5.85,-0.32,10.74, -0.13,-1.12,0.28
416,1.97,-2.97,9.75, -0.01,-0.50,0.04
417,-0.16,-0.04,10.98, 0.07,-0.78,-0.01
418,1.64,-1.35,10.24, 0.17,-0.92,0.19
419,6.64,3.71,13.17, -0.10,0.04,0.27
420,-0.47,-0.91,11.01, 0.08,0.12,0.05
421,-0.41,-0.74,10.60, -0.10,-0.02,-0.08
422,1.01,0.18,10.68, -0.13,-0.04,-0.02
423,1.35,0.06,10.61, -0.08,0.05,0.02
424,-0.22,-0.13,10.55, -0.08,0.03,0.01
425,2.10,-0.81,10.11, 0.10,0.13,0.72
426,-1.92,-0.65,8.35, 0.10,-0.04,0.41
427,-0.49,1.55,10.34, -0.18,0.01,-0.08
428,0.22,1.50,11.15, -0.22,-0.23,-0.00
429,2.02,-0.64,10.58, -0.06,-0.09,0.01
430,1.28,-1.45,10.46, 0.03,0.15,-0.00
431,-1.02,-0.30,10.58, 0.02,0.03,0.02
432,-0.61,1.01,10.63, -0.17,-0.06,-0.01
433,1.83,-1.78,10.79, -0.14,-0.19,0.05
434,1.81,-0.68,10.52, -0.07,0.02,0.01
435,1.04,-0.33,10.86, 0.04,0.18,0.01
436,-0.37,1.62,10.57, -0.04,-0.02,0.01
437,-1.52,-0.01,10.94, -0.20,-0.16,0.00
438,1.98,0.07,10.66, -0.10,-0.06,0.02
439,2.10,-0.69,10.68, 0.01,0.12,0.01
440,-1.25,0.11,10.63, -0.01,-0.02,0.05
441,-1.32,0.23,10.95, -0.21,-0.11,-0.01
442,2.12,0.35,10.41, -0.09,-0.04,0.01
443,0.31,0.46,10.74, 0.04,0.10,0.05
444,-0.56,0.82,10.64, -0.10,-0.06,0.00
445,1.13,-1.77,10.81, -0.11,-0.11,0.02
446,1.78,-0.81,10.61, -0.05,0.09,-0.02
447,-0.47,1.04,10.62, -0.04,0.02,-0.02
448,-0.30,-0.49,10.55, -0.16,-0.11,-0.04
449,2.08,-0.48,10.55, -0.07,0.02,-0.01
450,-0.58,0.88,10.76, -0.02,0.04,0.00
451,-0.03,0.45,10.85, -0.16,-0.10,-0.02
452,2.03,-0.36,10.44, -0.06,-0.00,-0.00
453,-0.38,0.24,10.75, -0.02,0.04,0.00
454,-0.36,0.37,10.64, -0.14,-0.08,-0.03
455,2.13,-0.48,10.60, -0.07,0.01,-0.01
456,-0.28,0.89,10.77, -0.04,0.02,0.00
457,0.44,-0.28,10.74, -0.13,-0.10,0.00
458,1.66,-0.62,10.66, -0.05,0.03,-0.01
459,-0.43,0.83,10.86, -0.06,0.01,-0.00
460,0.79,-0.34,10.75, -0.12,-0.08,-0.00
461,1.16,-0.55,10.68, -0.04,0.04,-0.00
462,-0.56,0.66,10.73, -0.07,-0.01,-0.00
463,0.96,-0.63,10.64, -0.10,-0.07,0.00
464,0.75,-0.44,10.70, -0.04,0.05,-0.00
465,-0.40,0.58,10.66, -0.09,-0.04,-0.00
466,1.19,-0.60,10.59, -0.09,-0.05,-0.00
467,0.35,-0.21,10.73, -0.04,0.04,0.00
468,-0.12,0.34,10.78, -0.10,-0.05,0.00
469,1.32,-0.60,10.69, -0.07,-0.01,-0.00
470,-0.11,0.23,10.72, -0.05,0.02,0.00
471,0.42,-0.09,10.69, -0.11,-0.06,-0.00
472,1.09,-0.46,10.67, -0.06,0.01,-0.00
473,-0.18,0.33,10.73, -0.07,-0.00,-0.00
474,0.67,-0.27,10.71, -0.10,-0.05,-0.00
475,0.84,-0.30,10.63, -0.05,0.02,-0.00
476,-0.12,0.32,10.80, -0.08,-0.02,-0.00
477,0.94,-0.36,10.54, -0.09,-0.04,-0.00
478,0.53,-0.16,10.74, -0.05,0.02,-0.00
479,0.07,0.22,10.63, -0.09,-0.04,0.00
480,1.16,-0.60,10.63, -0.08,-0.01,-0.01
481,0.19,0.24,10.78, -0.08,0.02,-0.02
482,0.60,0.15,10.73, -0.10,-0.05,-0.00
483,1.00,-0.47,10.58, -0.06,0.01,-0.00
484,0.18,0.37,10.78, -0.09,-0.00,-0.01
485,0.83,0.07,10.69, -0.09,-0.04,0.00
486,0.53,-0.28,10.65, -0.06,0.01,-0.00
487,0.18,0.12,10.64, -0.09,-0.02,-0.00
488,0.83,-0.16,10.71, -0.08,-0.03,0.00
489,0.49,-0.23,10.74, -0.05,0.00,0.00
490,0.23,0.10,10.66, -0.09,-0.03,-0.00
491,0.81,-0.33,10.71, -0.07,-0.02,0.00
492,0.16,-0.05,10.76, -0.06,-0.00,0.00
493,0.39,-0.08,10.68, -0.09,-0.04,-0.00
494,0.81,-0.15,10.69, -0.06,0.00,-0.00
495,0.17,0.11,10.77, -0.07,-0.02,0.00
496,0.66,-0.30,10.67, -0.08,-0.03,-0.00
497,0.49,-0.24,10.66, -0.06,-0.00,-0.00
498,0.29,-0.03,10.68, -0.08,-0.03,-0.00
499,0.74,-0.32,10.62, -0.08,-0.02,-0.00
500,0.35,-0.04,10.74, -0.07,-0.00,-0.00
501,0.39,-0.10,10.75, -0.08,-0.03,0.00
502,0.60,-0.24,10.67, -0.07,-0.01,-0.00
503,0.35,-0.01,10.67, -0.07,-0.01,-0.00
504,0.56,-0.16,10.68, -0.08,-0.02,-0.00
505,0.57,-0.10,10.76, -0.07,-0.01,-0.00
506,0.34,-0.03,10.71, -0.08,-0.02,-0.00
507,0.46,-0.50,10.61, -0.07,-0.02,-0.00
508,0.20,-0.50,10.74, -0.07,-0.01,-0.01
509,0.33,-0.21,10.62, -0.09,-0.02,-0.00
510,0.61,-0.33,10.62, -0.07,-0.01,-0.00
511,0.26,-0.20,10.72, -0.08,-0.01,-0.00
512,0.62,-0.01,10.63, -0.09,-0.02,-0.00
513,0.66,-0.01,10.70, -0.07,-0.01,-0.00
514,0.42,-0.04,10.65, -0.08,-0.02,-0.00
515,0.64,-0.09,10.64, -0.08,-0.02,-0.00
516,0.53,-0.03,10.75, -0.07,-0.01,-0.00
517,0.36,-0.11,10.71, -0.08,-0.02,0.00
518,0.64,-0.17,10.65, -0.07,-0.01,-0.00
519,0.48,-0.11,10.69, -0.07,-0.01,-0.00
520,0.52,-0.17,10.68, -0.08,-0.02,-0.00
521,0.50,-0.07,10.69, -0.07,-0.01,-0.00
522,0.46,-0.00,10.76, -0.08,-0.01,-0.00
523,0.59,-0.01,10.72, -0.08,-0.02,0.00
524,0.61,-0.06,10.66, -0.07,-0.02,-0.00
525,0.40,-0.04,10.70, -0.07,-0.02,-0.00
526,0.57,-0.14,10.65, -0.07,-0.02,0.00
527,0.43,-0.12,10.62, -0.07,-0.02,0.00
528,0.41,-0.19,10.67, -0.08,-0.02,-0.00
529,0.49,-0.15,10.74, -0.07,-0.02,-0.00
530,0.43,-0.10,10.73, -0.07,-0.01,-0.00
531,0.52,-0.10,10.65, -0.08,-0.02,-0.00
532,0.55,-0.09,10.77, -0.07,-0.01,-0.00
533,0.50,-0.08,10.79, -0.07,-0.02,-0.00
534,0.59,-0.17,10.71, -0.07,-0.01,-0.00
535,0.47,-0.13,10.75, -0.07,-0.01,-0.00
536,0.48,-0.13,10.69, -0.08,-0.02,0.00
537,0.54,-0.17,10.69, -0.08,-0.02,-0.00
538,0.46,-0.09,10.63, -0.07,-0.01,0.00
539,0.54,-0.11,10.70, -0.08,-0.02,-0.00
540,0.51,-0.08,10.72, -0.07,-0.01,-0.00
541,0.48,0.02,10.72, -0.08,-0.01,-0.00
542,0.52,-0.12,10.66, -0.07,-0.01,0.00
543,0.43,-0.12,10.75, -0.07,-0.02,-0.00
544,0.47,-0.06,10.79, -0.08,-0.02,-0.00
545,0.56,-0.16,10.67, -0.07,-0.01,0.00
546,0.45,-0.13,10.68, -0.07,-0.02,-0.00
547,0.44,-0.15,10.72, -0.08,-0.01,-0.00
548,0.47,-0.11,10.66, -0.07,-0.02,-0.00
549,0.47,-0.11,10.71, -0.07,-0.02,-0.00
550,0.54,-0.09,10.64, -0.08,-0.02,0.00
551,0.51,-0.07,10.70, -0.07,-0.01,-0.00
552,0.51,-0.07,10.67, -0.07,-0.02,-0.00
553,0.55,-0.12,10.75, -0.07,-0.01,-0.00
554,0.44,-0.09,10.64, -0.07,-0.01,-0.00
555,0.51,-0.07,10.78, -0.07,-0.02,-0.00
556,0.48,-0.15,10.75, -0.07,-0.02,-0.00
557,0.51,-0.07,10.70, -0.08,-0.02,0.00
558,0.49,-0.17,10.70, -0.07,-0.01,-0.00
559,0.43,-0.12,10.61, -0.07,-0.01,-0.00
560,0.47,-0.09,10.66, -0.08,-0.02,-0.00
561,0.61,-0.11,10.71, -0.08,-0.01,-0.00
562,0.53,-0.07,10.73, -0.08,-0.01,-0.00
563,0.55,-0.08,10.77, -0.07,-0.02,0.00
564,0.56,-0.04,10.67, -0.07,-0.02,-0.00
565,0.45,-0.06,10.64, -0.08,-0.01,-0.00
566,0.47,-0.11,10.76, -0.07,-0.02,-0.00
567,0.48,-0.18,10.67, -0.07,-0.02,0.00
568,0.49,-0.14,10.70, -0.08,-0.01,-0.00
569,0.47,-0.15,10.72, -0.08,-0.02,-0.00
570,0.46,-0.06,10.65, -0.08,-0.01,0.00
571,0.46,-0.08,10.67, -0.07,-0.02,-0.00
572,0.55,-0.10,10.68, -0.07,-0.01,-0.00
573,0.50,-0.03,10.60, -0.07,-0.01,0.00
574,0.51,-0.16,10.68, -0.08,-0.01,-0.00
575,0.47,-0.07,10.69, -0.07,-0.02,0.00
576,0.46,-0.10,10.73, -0.08,-0.02,-0.00
577,0.52,-0.15,10.74, -0.07,-0.02,-0.00
578,0.53,-0.10,10.71, -0.07,-0.02,-0.00
579,0.51,-0.12,10.67, -0.07,-0.02,-0.00
580,0.46,-0.13,10.66, -0.07,-0.02,-0.00
581,0.51,-0.14,10.70, -0.07,-0.02,0.00
582,0.47,-0.14,10.78, -0.08,-0.02,0.00
583,0.45,-0.16,10.63, -0.07,-0.01,0.00
584,0.50,-0.10,10.75, -0.07,-0.01,-0.00
585,0.51,-0.11,10.71, -0.07,-0.01,-0.00
586,0.47,-0.12,10.72, -0.07,-0.02,-0.00
587,0.49,-0.08,10.77, -0.07,-0.01,-0.00
588,0.51,-0.10,10.62, -0.07,-0.01,-0.00
589,0.50,-0.06,10.69, -0.07,-0.01,-0.00
590,0.49,-0.10,10.72, -0.08,-0.02,-0.00
591,0.45,-0.13,10.75, -0.07,-0.01,-0.00
592,0.49,-0.12,10.70, -0.07,-0.02,-0.00
593,0.53,-0.12,10.82, -0.08,-0.01,-0.00
594,0.54,-0.13,10.68, -0.08,-0.02,-0.00
595,0.42,-0.16,10.74, -0.07,-0.02,-0.00
596,0.52,-0.06,10.62, -0.08,-0.02,-0.00
597,0.49,-0.08,10.66, -0.07,-0.02,-0.00
598,0.53,-0.03,10.66, -0.08,-0.01,-0.00
599,0.54,-0.02,10.71, -0.07,-0.01,0.00
600,0.53,-0.06,10.74, -0.07,-0.02,-0.00
601,0.56,-0.08,10.66, -0.07,-0.02,-0.00
602,0.49,-0.09,10.72, -0.07,-0.02,0.00
603,0.47,-0.15,10.74, -0.08,-0.01,0.00
604,0.46,-0.12,10.74, -0.07,-0.02,0.00
605,0.45,-0.16,10.72, -0.07,-0.01,-0.00
606,0.46,-0.18,10.68, -0.07,-0.02,-0.00
607,0.46,-0.20,10.69, -0.07,-0.02,-0.00
608,0.50,-0.15,10.76, -0.07,-0.01,-0.00
609,0.50,-0.13,10.68, -0.07,-0.01,-0.00
610,0.51,0.01,10.67, -0.07,-0.02,-0.00
611,0.51,-0.10,10.75, -0.07,-0.01,0.00
612,0.49,0.00,10.68, -0.07,-0.01,-0.00
613,0.47,-0.13,10.70, -0.07,-0.01,-0.00
614,0.50,-0.17,10.71, -0.07,-0.02,-0.00
615,0.50,-0.14,10.74, -0.07,-0.01,-0.00
616,0.48,-0.13,10.63, -0.08,-0.02,-0.00
617,0.50,-0.05,10.68, -0.07,-0.02,0.00
618,0.52,-0.16,10.72, -0.08,-0.02,-0.00
619,0.49,-0.11,10.66, -0.07,-0.01,-0.00
620,0.57,-0.13,10.60, -0.08,-0.01,-0.00
621,0.54,-0.12,10.71, -0.07,-0.02,0.00
622,0.60,-0.13,10.73, -0.07,-0.01,-0.00
623,0.52,-0.08,10.71, -0.07,-0.02,-0.00
624,0.52,-0.13,10.76, -0.07,-0.02,-0.00
625,0.48,-0.14,10.64, -0.07,-0.02,-0.00
626,0.53,-0.17,10.73, -0.08,-0.02,-0.00
627,0.48,-0.05,10.73, -0.07,-0.02,-0.00
628,0.48,-0.13,10.76, -0.07,-0.01,-0.00
629,0.48,-0.07,10.70, -0.07,-0.01,-0.00
630,0.42,-0.04,10.70, -0.08,-0.01,-0.00
631,0.39,-0.16,10.67, -0.07,-0.01,-0.00
632,0.54,-0.11,10.68, -0.07,-0.01,-0.00
633,0.60,-0.10,10.74, -0.07,-0.01,-0.00
634,0.49,-0.12,10.74, -0.07,-0.01,-0.00
635,0.45,-0.12,10.64, -0.07,-0.01,-0.00
636,0.40,-0.16,10.72, -0.07,-0.02,0.00
637,0.48,-0.10,10.70, -0.08,-0.02,-0.00
638,0.54,-0.05,10.75, -0.07,-0.02,0.00
639,0.57,-0.09,10.74, -0.07,-0.01,-0.00
640,0.50,-0.17,10.71, -0.07,-0.02,0.00
641,0.44,-0.16,10.69, -0.07,-0.02,-0.00
642,0.58,-0.11,10.73, -0.07,-0.02,0.00
643,0.52,-0.18,10.72, -0.08,-0.01,0.00
644,0.47,-0.16,10.68, -0.07,-0.01,-0.00
645,0.45,-0.14,10.73, -0.08,-0.02,-0.00
646,0.51,-0.15,10.65, -0.07,-0.02,-0.00
647,0.50,-0.09,10.63, -0.08,-0.01,-0.00
648,0.52,-0.10,10.63, -0.07,-0.01,0.00
649,0.50,0.01,10.75, -0.07,-0.02,0.00
650,0.51,-0.11,10.66, -0.07,-0.02,0.00
651,0.48,-0.14,10.71, -0.07,-0.01,0.00
652,0.49,-0.13,10.70, -0.07,-0.02,-0.00
653,0.52,-0.09,10.69, -0.07,-0.01,-0.00
654,0.48,-0.19,10.66, -0.07,-0.01,0.00
655,0.39,-0.11,10.70, -0.07,-0.01,-0.00
656,0.49,-0.11,10.73, -0.07,-0.01,-0.00
657,0.46,-0.09,10.78, -0.07,-0.01,-0.00
658,0.49,-0.11,10.61, -0.08,-0.01,-0.00
659,0.43,-0.08,10.66, -0.07,-0.01,-0.00
660,0.45,-0.03,10.59, -0.08,-0.02,-0.00
661,0.51,-0.09,10.71, -0.07,-0.01,0.00
662,0.48,-0.13,10.66, -0.07,-0.02,-0.00
663,0.57,-0.06,10.71, -0.08,-0.02,-0.00
664,0.59,-0.13,10.72, -0.07,-0.02,-0.00
665,0.44,-0.11,10.66, -0.07,-0.01,0.00
666,0.49,-0.17,10.69, -0.07,-0.01,-0.00
667,0.50,-0.12,10.75, -0.08,-0.02,0.00
668,0.48,-0.19,10.68, -0.07,-0.01,-0.00
669,0.53,-0.03,10.69, -0.07,-0.01,-0.00
670,0.48,-0.09,10.71, -0.07,-0.01,-0.00
671,0.42,-0.09,10.75, -0.07,-0.02,-0.00
672,0.49,-0.06,10.72, -0.07,-0.02,0.00
673,0.51,-0.14,10.72, -0.07,-0.02,0.00
674,0.51,-0.10,10.74, -0.07,-0.01,-0.00
675,0.51,-0.14,10.71, -0.08,-0.01,-0.00
676,0.49,-0.02,10.69, -0.07,-0.01,-0.01
677,0.50,0.02,10.63, -0.08,-0.02,-0.00
678,0.58,-0.03,10.72, -0.07,-0.01,0.00
679,0.56,-0.03,10.64, -0.07,-0.02,0.00
680,0.57,-0.18,10.65, -0.07,-0.01,0.00
681,0.43,-0.17,10.71, -0.07,-0.02,-0.00
682,0.40,-0.17,10.72, -0.07,-0.02,-0.00
683,0.36,-0.23,10.71, -0.07,-0.02,0.00
684,0.54,-0.17,10.70, -0.08,-0.02,-0.00
685,0.50,-0.15,10.64, -0.08,-0.01,-0.01
686,0.55,-0.04,10.69, -0.08,-0.01,-0.00
687,0.41,-0.04,10.68, -0.07,-0.01,-0.00
688,0.51,-0.09,10.68, -0.08,-0.02,0.00
689,0.59,-0.06,10.67, -0.07,-0.01,0.00
690,0.56,-0.08,10.61, -0.07,-0.01,-0.00
691,0.49,-0.15,10.71, -0.08,-0.01,-0.00
692,0.45,-0.08,10.74, -0.07,-0.01,-0.00
693,0.49,-0.11,10.62, -0.07,-0.02,0.00
694,0.50,-0.08,10.64, -0.08,-0.02,0.00
695,0.51,-0.08,10.73, -0.08,-0.02,-0.00
696,0.44,-0.10,10.70, -0.08,-0.01,-0.00
697,0.51,-0.12,10.71, -0.08,-0.02,-0.00
698,0.51,-0.08,10.69, -0.08,-0.01,-0.00
699,0.50,-0.10,10.67, -0.07,-0.02,0.00
700,0.52,-0.16,10.68, -0.07,-0.02,-0.00
701,0.52,-0.09,10.73, -0.07,-0.02,-0.00
702,0.52,-0.09,10.74, -0.08,-0.01,-0.00
703,0.45,-0.10,10.66, -0.07,-0.01,-0.00
704,0.50,-0.07,10.68, -0.07,-0.02,-0.00
705,0.48,-0.13,10.71, -0.07,-0.02,-0.00
706,0.48,-0.09,10.66, -0.07,-0.01,-0.00
707,0.53,-0.07,10.65, -0.08,-0.02,0.00
708,0.46,-0.13,10.67, -0.07,-0.02,-0.00
709,0.48,-0.11,10.71, -0.08,-0.01,-0.00
710,0.47,-0.14,10.70, -0.07,-0.02,-0.00
711,0.53,-0.14,10.75, -0.08,-0.01,-0.00
712,0.50,-0.07,10.72, -0.07,-0.01,-0.00
713,0.56,-0.04,10.76, -0.08,-0.01,-0.00
714,0.48,-0.11,10.65, -0.07,-0.01,0.00
715,0.50,-0.09,10.76, -0.07,-0.02,0.00
716,0.51,-0.18,10.69, -0.07,-0.01,-0.00
717,0.42,-0.13,10.69, -0.07,-0.02,-0.00
718,0.53,-0.12,10.73, -0.07,-0.02,-0.00
719,0.55,-0.08,10.74, -0.07,-0.02,-0.00
720,0.43,-0.12,10.69, -0.07,-0.02,-0.00
721,0.48,-0.17,10.69, -0.07,-0.01,-0.00
722,0.48,-0.11,10.62, -0.07,-0.01,-0.00
723,0.45,-0.08,10.68, -0.07,-0.01,-0.00
724,0.59,-0.17,10.72, -0.08,-0.01,0.00
725,0.57,-0.08,10.72, -0.07,-0.01,-0.00
726,0.49,-0.11,10.68, -0.07,-0.02,-0.00
727,0.57,-0.07,10.73, -0.08,-0.01,-0.00
728,0.53,-0.10,10.82, -0.08,-0.01,0.00
729,0.51,-0.05,10.67, -0.07,-0.02,-0.00
730,0.46,-0.07,10.72, -0.07,-0.02,0.00
731,0.51,-0.16,10.68, -0.07,-0.02,-0.00
732,0.50,-0.11,10.72, -0.07,-0.01,-0.00
733,0.45,-0.21,10.71, -0.08,-0.01,0.00
734,0.49,-0.09,10.74, -0.08,-0.01,0.00
735,0.46,-0.10,10.68, -0.07,-0.01,-0.00
736,0.47,-0.07,10.62, -0.08,-0.01,-0.00
737,0.52,-0.13,10.71, -0.08,-0.01,-0.00
738,0.47,-0.12,10.71, -0.08,-0.01,-0.00
739,0.47,-0.11,10.67, -0.07,-0.01,-0.00
740,0.50,-0.11,10.78, -0.07,-0.02,-0.00
741,0.51,-0.04,10.76, -0.07,-0.01,0.00
742,0.50,-0.16,10.69, -0.07,-0.02,0.00
743,0.53,-0.17,10.69, -0.07,-0.01,0.00
744,0.45,-0.14,10.66, -0.07,-0.01,-0.00
745,0.49,-0.18,10.74, -0.08,-0.01,-0.00
746,0.49,-0.19,10.72, -0.07,-0.01,0.00
747,0.49,-0.12,10.71, -0.07,-0.01,-0.00
748,0.50,0.00,10.70, -0.07,-0.02,0.00
749,0.52,-0.05,10.79, -0.07,-0.01,-0.00
750,0.49,-0.07,10.72, -0.07,-0.02,-0.00
751,0.51,-0.11,10.66, -0.07,-0.01,-0.00
752,0.49,-0.09,10.65, -0.07,-0.01,0.00
753,0.50,-0.05,10.69, -0.07,-0.02,-0.00
754,0.48,-0.15,10.73, -0.07,-0.01,-0.00
755,0.50,-0.08,10.75, -0.07,-0.02,-0.00
756,0.52,-0.15,10.79, -0.07,-0.01,-0.00
757,0.49,-0.13,10.68, -0.08,-0.01,-0.00
758,0.57,-0.05,10.73, -0.07,-0.01,-0.00
759,0.48,-0.15,10.62, -0.07,-0.02,-0.00
760,0.47,-0.09,10.71, -0.08,-0.01,-0.00
761,0.53,-0.09,10.65, -0.07,-0.01,0.00
762,0.53,-0.16,10.65, -0.08,-0.02,0.00
763,0.54,-0.17,10.71, -0.08,-0.01,-0.00
764,0.50,-0.13,10.75, -0.07,-0.01,0.00
765,0.50,-0.08,10.76, -0.08,-0.01,-0.00
766,0.51,-0.12,10.69, -0.07,-0.02,0.00
767,0.51,-0.08,10.64, -0.07,-0.01,-0.00
768,0.54,-0.07,10.67, -0.07,-0.02,-0.00
769,0.55,-0.14,10.66, -0.08,-0.01,0.00
770,0.48,-0.12,10.70, -0.07,-0.01,0.00
771,0.48,-0.10,10.73, -0.07,-0.01,-0.00
772,0.43,-0.13,10.65, -0.08,-0.01,-0.00
773,0.52,-0.13,10.72, -0.07,-0.01,-0.00
774,0.41,-0.11,10.72, -0.07,-0.01,-0.00
775,0.42,-0.18,10.65, -0.07,-0.01,-0.00
776,0.37,-0.16,10.69, -0.07,-0.01,-0.00
777,0.45,-0.18,10.68, -0.07,-0.02,-0.00
778,0.50,-0.17,10.69, -0.07,-0.01,-0.00
779,0.44,-0.17,10.73, -0.08,-0.01,-0.00
780,0.51,-0.10,10.69, -0.08,-0.01,-0.00
781,0.57,-0.11,10.67, -0.08,-0.01,-0.00
782,0.48,-0.07,10.68, -0.07,-0.02,-0.00
783,0.58,-0.07,10.70, -0.07,-0.01,-0.00
784,0.53,-0.06,10.70, -0.08,-0.01,-0.00
785,0.49,-0.02,10.73, -0.08,-0.01,-0.00
786,0.48,-0.08,10.69, -0.08,-0.01,0.00
787,0.55,-0.10,10.75, -0.07,-0.01,0.00
788,0.53,0.00,10.72, -0.07,-0.02,0.00
789,0.54,-0.14,10.64, -0.07,-0.02,0.00
790,0.44,-0.05,10.63, -0.07,-0.01,0.00
791,0.44,-0.07,10.73, -0.07,-0.02,0.00
792,0.45,-0.13,10.59, -0.07,-0.01,-0.00
793,0.39,-0.13,10.76, -0.08,-0.02,-0.00
794,0.55,-0.07,10.63, -0.07,-0.01,-0.00
795,0.49,-0.12,10.68, -0.07,-0.02,-0.00
796,0.49,-0.10,10.72, -0.08,-0.02,-0.00
797,0.48,-0.12,10.72, -0.07,-0.01,0.00
798,0.46,-0.14,10.70, -0.07,-0.02,0.00
799,0.45,-0.12,10.74, -0.08,-0.01,-0.00
800,0.49,-0.18,10.77, -0.07,-0.01,0.00
801,0.46,-0.16,10.71, -0.07,-0.01,-0.00
802,0.50,-0.07,10.67, -0.08,-0.01,-0.00
803,0.56,-0.03,10.70, -0.07,-0.01,-0.00
804,0.49,-0.06,10.76, -0.07,-0.02,-0.00
805,0.47,-0.09,10.69, -0.08,-0.01,0.00
806,0.50,-0.16,10.73, -0.07,-0.01,-0.00
807,0.46,-0.20,10.74, -0.07,-0.02,0.00
808,0.38,-0.24,10.66, -0.07,-0.02,-0.00
809,0.35,-0.13,10.66, -0.07,-0.02,0.00
810,0.54,-0.16,10.72, -0.07,-0.02,0.00
811,0.42,-0.17,10.69, -0.07,-0.02,0.00
812,0.41,-0.19,10.57, -0.07,-0.02,0.00
813,0.41,-0.24,10.69, -0.07,-0.02,-0.00
814,0.44,-0.15,10.64, -0.08,-0.01,-0.00
815,0.51,-0.11,10.75, -0.08,-0.01,-0.00
816,0.53,-0.06,10.75, -0.08,-0.01,-0.00
817,0.58,-0.01,10.68, -0.08,-0.01,-0.00
818,0.61,-0.06,10.72, -0.08,-0.01,-0.00
819,0.50,-0.08,10.69, -0.08,-0.02,-0.00
820,0.54,-0.07,10.73, -0.07,-0.02,-0.00
821,0.51,-0.14,10.77, -0.07,-0.02,-0.00
822,0.49,-0.17,10.62, -0.07,-0.01,-0.00
823,0.45,-0.09,10.72, -0.07,-0.02,-0.00
824,0.52,-0.20,10.79, -0.07,-0.02,0.00
825,0.40,-0.19,10.71, -0.07,-0.02,-0.00
826,0.46,-0.10,10.75, -0.08,-0.02,-0.00
827,0.53,-0.14,10.72, -0.07,-0.01,-0.00
828,0.46,0.02,10.80, -0.07,-0.02,-0.00
829,0.50,-0.08,10.70, -0.07,-0.01,-0.00
830,0.54,0.01,10.63, -0.07,-0.01,-0.00
831,0.51,-0.06,10.84, -0.07,-0.01,0.00
832,0.48,-0.10,10.71, -0.07,-0.02,0.01
833,0.42,-0.28,10.65, -0.07,-0.02,0.00
834,0.43,-0.19,10.74, -0.07,-0.01,0.00
835,0.34,-0.22,10.70, -0.07,-0.02,-0.00
836,0.51,-0.28,10.71, -0.07,-0.02,-0.00
837,0.43,-0.08,10.65, -0.08,-0.01,-0.00
838,0.61,-0.06,10.73, -0.08,-0.01,-0.00
839,0.64,-0.00,10.77, -0.08,-0.01,-0.00
840,0.71,0.28,10.69, -0.08,-0.01,0.00
841,0.66,0.19,10.84, -0.07,-0.02,0.00
842,0.67,0.14,10.67, -0.07,-0.02,0.01
843,0.56,0.16,10.70, -0.06,-0.03,0.01
844,0.54,-0.25,10.65, -0.07,-0.02,0.01
845,0.32,-0.35,10.80, -0.07,-0.01,0.00
846,0.31,-0.39,10.73, -0.07,-0.02,0.00
847,0.38,-0.41,10.77, -0.07,-0.01,-0.00
848,0.63,-0.11,10.71, -0.05,0.01,-0.01
849,0.26,0.15,10.84, -0.06,-0.00,-0.00
850,0.15,0.00,10.64, -0.09,-0.03,-0.00
851,0.61,-0.42,10.65, -0.08,-0.04,0.00
852,0.67,-0.30,10.67, -0.04,0.01,0.01
853,0.51,-0.15,10.77, -0.03,0.02,0.07
854,0.35,-1.00,11.02, -0.08,0.01,0.16
855,0.25,0.11,10.65, -0.01,0.00,0.23
856,1.05,-0.85,10.75, 0.02,0.08,0.09
857,-1.16,-1.52,11.14, 0.07,0.10,0.08
858,1.19,-0.54,11.45, 0.10,0.31,-0.54
859,-0.76,1.28,11.78, -0.16,0.42,-0.82
860,0.73,0.91,12.56, -0.12,0.34,-0.63
861,1.62,-0.36,13.02, 0.03,0.45,-0.76
862,1.20,2.26,12.68, 0.09,0.61,-0.94
863,1.16,1.10,12.54, 0.00,0.57,-1.34
864,1.31,1.73,12.75, 0.18,0.57,-1.15
865,0.23,1.35,12.40, 0.26,0.42,-0.97
866,0.82,0.74,11.98, 0.35,0.45,-1.08
867,1.39,1.33,11.75, 0.26,0.57,-1.03
868,0.45,1.08,11.49, 0.19,0.54,-1.10
869,0.82,2.06,11.48, 0.10,0.39,-1.14
870,1.54,1.94,11.35, 0.08,0.33,-1.13
871,0.82,1.10,10.83, 0.20,0.32,-0.99
872,1.29,1.72,10.31, 0.32,0.33,-1.09
873,1.55,1.41,9.90, 0.18,0.46,-1.19
874,0.37,1.81,10.06, 0.17,0.36,-1.19
875,0.62,2.88,9.47, 0.12,0.10,-0.95
876,-1.31,1.83,9.50, 0.31,-0.18,-0.74
877,0.32,1.44,9.47, 0.36,-0.34,-0.64
878,-0.12,1.68,9.75, 0.33,-0.35,-0.59
879,-0.77,1.62,9.66, 0.21,-0.47,-0.50
880,-0.74,1.41,9.48, 0.20,-0.59,-0.43
881,0.10,1.09,9.42, 0.23,-0.57,-0.38
882,-0.57,1.22,9.15, 0.26,-0.53,-0.38
883,-0.51,1.31,9.24, 0.27,-0.59,-0.26
884,-0.57,0.61,9.70, 0.21,-0.53,-0.23
885,-0.38,1.15,9.70, 0.07,-0.61,-0.34
886,0.66,1.36,9.17, -0.23,-0.48,-0.42
887,0.58,0.94,9.12, -0.32,-0.39,-0.22
888,0.41,0.89,9.81, -0.22,-0.37,0.07
889,0.31,0.21,10.51, 0.25,-0.33,0.09
890,0.68,1.51,10.27, 0.05,0.20,-0.22
891,3.24,1.56,10.38, 0.22,-0.02,0.67
892,-0.02,-0.63,11.43, 0.15,0.33,0.17
893,-1.85,3.05,12.01, 0.13,-0.36,-0.38
894,1.55,2.47,11.62, -0.35,-0.48,-0.51
895,3.45,-3.04,12.21, -0.07,-0.23,-0.39
896,-0.84,-1.29,11.15, 0.58,-0.19,-0.49
897,0.15,6.53,8.74, -0.00,-0.51,-1.21
898,4.03,2.15,8.85, -0.57,0.11,-0.55
899,2.41,2.08,10.99, -0.42,0.46,0.24
900,-1.53,-0.19,11.05, -0.10,0.17,-0.21
901,-0.39,1.36,10.34, -0.50,-0.31,-0.61
902,-0.12,2.28,9.90, -0.69,-0.57,-0.57
903,1.18,1.98,10.10, -0.48,-0.59,-0.50
904,1.92,1.32,9.73, -0.21,-0.33,0.47
905,1.35,-0.46,9.77, 0.40,-0.16,0.48
906,0.57,0.05,9.89, 0.25,0.17,0.03
907,0.59,0.57,10.54, -0.09,0.34,-0.47
908,1.23,2.47,10.54, -0.28,0.25,-0.34
909,1.10,2.12,10.62, -0.29,0.20,-0.08
910,1.55,1.31,10.50, -0.07,0.10,-0.17
911,1.12,1.57,10.64, 0.08,0.04,-0.40
912,1.87,2.68,10.90, 0.10,-0.01,-0.39
913,1.29,2.46,11.00, -0.17,-0.18,-0.37
914,1.15,2.49,11.09, -0.28,-0.33,-0.41
915,0.99,1.74,11.04, -0.18,-0.36,-0.35
916,1.10,1.07,10.98, 0.09,-0.30,-0.40
917,0.39,1.75,11.03, 0.15,-0.13,-0.50
918,0.47,1.65,11.00, 0.05,-0.02,-0.64
919,0.86,1.79,10.94, 0.04,0.05,-0.64
920,1.19,1.30,10.92, 0.23,0.06,-0.61
921,0.32,1.42,11.18, 0.28,-0.05,-0.39
922,0.72,1.51,11.15, 0.14,-0.07,-0.39
923,1.02,1.66,10.78, 0.06,0.13,-0.95
924,1.33,0.75,10.43, 0.26,0.41,-1.08
925,1.02,0.89,11.47, 0.39,0.56,-0.83
926,0.05,2.13,11.92, 0.22,0.37,-0.93
927,0.08,2.15,10.92, -0.05,0.29,-1.05
928,0.62,1.39,10.85, 0.06,0.34,-1.01
929,0.81,1.17,10.96, 0.31,0.43,-0.81
930,-0.18,1.83,11.22, 0.31,0.17,-0.61
931,0.36,1.45,11.03, 0.07,-0.07,-0.47
932,-0.83,2.86,10.78, -0.18,-0.18,-0.35
933,-0.74,2.48,10.72, -0.29,-0.50,-0.31
934,-0.08,2.38,10.22, -0.18,-0.55,-0.47
935,-0.10,1.87,10.14, -0.06,-0.42,-0.16
936,-1.16,2.69,10.30, -0.20,-0.36,0.08
937,-0.46,2.67,10.24, -0.48,-0.29,0.04
938,0.35,2.63,10.26, -0.55,-0.24,0.06
939,-0.35,3.06,10.58, -0.47,-0.33,0.07
940,0.78,2.64,10.46, -0.39,-0.28,0.13
941,-0.01,2.39,10.35, -0.33,-0.19,0.29
942,0.34,0.90,10.36, -0.27,-0.15,0.01
943,-0.33,2.60,10.49, -0.34,-0.19,-0.07
944,0.77,1.62,9.36, -0.24,-0.15,-0.31
945,1.44,1.02,8.86, 0.07,0.15,0.09
946,1.28,0.91,9.87, 0.30,0.20,0.41
947,1.10,1.48,10.54, 0.18,0.17,0.09
948,1.81,2.00,10.17, 0.07,0.34,-0.30
949,1.76,2.16,9.40, -0.01,0.46,-0.40
950,0.58,1.18,10.38, -0.02,0.30,-0.18
951,1.24,1.79,10.52, -0.21,0.12,-0.22
952,0.77,2.76,10.55, -0.41,-0.16,-0.39
953,0.68,2.04,10.82, -0.47,-0.44,-0.75
954,3.22,0.21,10.06, -0.12,-0.40,-0.64
955,1.49,0.82,10.31, 0.15,-0.14,-0.10
956,0.39,2.23,11.09, -0.09,-0.26,-0.10
957,0.59,2.79,10.98, -0.31,-0.29,-0.52
958,0.81,2.93,11.59, -0.31,-0.39,-0.63
959,0.93,0.98,10.58, -0.05,-0.42,-0.68
960,1.27,1.74,10.19, 0.20,-0.18,-0.46
961,1.07,1.63,10.46, 0.19,0.11,-0.12
962,-0.19,1.73,10.48, 0.15,0.11,-0.33
963,0.30,1.59,10.51, 0.05,0.05,-0.36
964,0.12,2.24,10.43, 0.01,-0.11,-0.20
965,0.35,1.31,10.10, 0.08,-0.10,-0.11
966,0.69,1.02,9.97, 0.17,-0.01,0.09
967,0.52,2.26,10.44, 0.01,0.01,-0.02
968,0.32,2.44,11.06, -0.29,-0.05,-0.03
969,0.57,2.32,11.05, -0.36,-0.15,0.06
970,1.25,1.75,10.51, -0.16,-0.05,-0.04
971,0.68,1.97,10.39, -0.00,0.09,0.06
972,0.38,2.43,11.00, -0.04,0.01,0.06
973,0.12,2.97,11.08, -0.18,-0.04,0.02
974,0.84,1.99,10.46, -0.22,0.02,-0.06
975,0.58,2.64,10.84, -0.20,0.05,-0.02
976,0.42,2.15,10.92, -0.24,0.01,-0.08
977,0.70,2.04,10.72, -0.18,-0.04,-0.06
978,0.61,2.25,10.61, -0.10,-0.03,0.01
979,0.94,1.83,10.20, -0.03,0.06,0.06
980,0.92,1.56,9.96, 0.10,0.23,0.05
981,0.93,1.91,10.35, 0.08,0.31,0.05
982,0.45,2.21,10.86, -0.05,0.16,-0.03
983,0.35,1.97,10.91, -0.19,-0.10,0.05
984,1.00,1.97,10.95, -0.23,-0.22,0.14
985,0.66,2.17,10.88, -0.20,-0.22,0.16
986,1.09,2.21,11.16, -0.18,-0.15,0.12
987,1.13,2.49,11.17, -0.22,-0.11,-0.03
988,0.53,2.51,11.31, -0.25,-0.15,-0.07
989,0.76,2.26,10.94, -0.17,-0.14,-0.00
990,0.96,1.51,10.45, 0.04,-0.03,0.02
991,0.36,1.87,10.41, 0.12,0.00,0.12
992,0.12,1.83,10.39, -0.02,-0.04,0.10
993,0.53,1.99,10.46, -0.15,-0.07,0.16
994,0.62,2.60,10.58, -0.29,-0.03,0.06
995,0.63,2.35,10.87, -0.38,0.03,-0.06
996,0.93,1.80,10.38, -0.15,0.06,-0.11
997,1.16,1.53,9.70, 0.20,0.13,0.05
998,0.71,1.86,10.18, 0.27,0.15,0.20
999,0.66,2.18,10.42, 0.10,0.06,0.17
1000,0.81,1.80,10.30, -0.04,0.01,0.05
1001,0.60,1.84,10.45, -0.13,-0.06,0.09
1002,0.81,1.99,10.43, -0.24,-0.15,0.03
1003,0.79,2.07,10.50, -0.26,-0.10,-0.07
1004,1.00,2.13,10.54, -0.21,-0.08,-0.01
1005,0.95,1.91,10.25, -0.00,-0.03,0.04
1006,0.93,2.26,10.76, 0.07,-0.04,0.15
1007,0.87,2.23,10.91, 0.04,-0.05,0.09
1008,0.91,1.81,10.53, 0.00,-0.04,-0.01
1009,0.74,1.84,10.30, -0.01,0.03,-0.08
1010,0.59,1.93,10.45, -0.06,0.05,-0.12
1011,0.40,1.48,10.33, -0.11,-0.00,0.00
1012,0.71,1.83,10.37, -0.06,-0.06,0.05
1013,0.70,1.87,10.49, -0.07,-0.10,0.11
1014,0.54,1.96,10.57, -0.12,-0.14,0.14
1015,1.08,2.09,10.42, -0.12,-0.03,0.05
1016,1.23,2.19,10.35, -0.13,0.07,-0.02
1017,0.93,2.18,10.43, -0.14,0.14,-0.10
1018,0.68,1.95,10.59, -0.11,0.13,-0.07
1019,0.67,1.94,10.81, -0.15,0.08,0.06
1020,0.68,2.52,10.78, -0.28,0.16,-0.14
1021,0.91,1.78,10.51, -0.19,0.24,-0.18
1022,0.66,1.52,10.64, -0.05,0.11,-0.06
1023,0.17,1.61,10.99, -0.06,-0.08,0.02
1024,0.20,1.94,10.75, -0.23,-0.29,0.01
1025,0.27,2.19,10.68, -0.28,-0.34,-0.03
1026,0.86,1.27,10.32, -0.12,-0.20,0.03
1027,0.53,1.82,10.65, -0.03,-0.03,0.04
1028,0.57,1.99,10.82, -0.05,0.04,0.02
1029,0.56,2.03,10.79, -0.11,-0.01,-0.01
1030,0.97,1.55,10.28, -0.02,0.03,0.04
1031,0.66,1.75,10.34, 0.04,0.05,0.08
1032,0.82,1.98,10.60, -0.06,-0.00,0.04
1033,0.91,2.17,10.55, -0.20,-0.11,0.00
1034,1.00,2.09,10.18, -0.18,-0.13,0.01
1035,0.94,2.19,10.69, -0.09,-0.13,0.07
1036,1.02,1.65,10.52, 0.04,-0.14,0.05
1037,0.75,1.24,10.20, 0.13,-0.09,0.06
1038,0.64,1.59,9.92, 0.10,0.03,-0.07
1039,0.60,1.12,9.94, 0.02,0.10,-0.07
1040,0.47,1.63,10.43, -0.11,0.02,0.02
1041,0.62,1.77,10.49, -0.23,-0.09,0.07
1042,0.99,1.87,10.52, -0.22,-0.09,0.05
1043,1.02,2.08,10.54, -0.19,0.00,0.00
1044,1.13,2.02,10.72, -0.10,0.10,0.02
1045,0.95,2.02,10.78, -0.05,0.09,0.01
1046,0.92,1.81,10.42, -0.01,0.05,0.03
1047,1.25,1.56,10.30, -0.02,0.05,0.05
1048,0.96,1.86,10.60, -0.03,0.06,0.05
1049,0.98,2.02,10.56, -0.13,0.02,-0.07
1050,1.09,2.06,10.67, -0.20,-0.04,-0.05
1051,0.84,1.83,10.68, -0.14,-0.11,-0.00
1052,0.86,1.89,10.66, -0.06,-0.18,0.08
1053,1.00,1.75,10.69, -0.03,-0.13,0.10
1054,0.87,2.15,10.99, -0.13,-0.08,-0.03
1055,1.01,2.06,10.80, -0.14,-0.02,-0.08
1056,1.02,2.08,10.67, -0.02,0.04,-0.02
1057,0.78,1.87,10.65, 0.03,-0.01,-0.03
1058,0.81,1.75,10.59, 0.09,-0.04,0.02
1059,0.87,1.50,10.21, 0.09,0.02,0.01
1060,0.74,1.68,10.20, -0.01,0.08,-0.04
1061,0.48,1.86,10.43, -0.16,0.03,-0.06
1062,0.52,1.80,10.41, -0.22,-0.06,-0.05
1063,0.83,1.37,10.19, -0.06,-0.09,0.10
1064,1.07,1.54,9.91, 0.10,-0.04,0.18
1065,1.00,1.53,10.06, 0.12,0.08,0.14
1066,0.75,1.84,10.37, -0.00,0.07,0.12
1067,0.78,2.26,10.53, -0.23,-0.02,0.07
1068,0.99,2.06,10.38, -0.35,-0.02,-0.02
1069,1.45,1.76,10.30, -0.20,0.07,-0.01
1070,0.98,2.04,10.71, -0.07,0.10,0.03
1071,0.88,2.20,11.01, -0.07,0.03,0.03
1072,1.04,2.09,10.84, -0.05,-0.03,-0.03
1073,0.96,1.83,10.49, -0.01,-0.02,-0.03
1074,0.74,1.89,10.60, 0.01,-0.02,0.05
1075,0.88,1.88,10.55, -0.05,-0.02,-0.03
1076,0.47,1.81,10.76, -0.09,-0.00,-0.07
1077,0.55,1.57,11.00, -0.14,0.02,-0.05
1078,0.46,2.22,10.58, -0.21,0.01,-0.14
1079,0.85,1.54,9.81, -0.11,0.04,-0.11
1080,0.66,1.60,9.68, 0.05,0.11,0.05
1081,0.79,1.77,10.52, 0.01,0.09,0.10
1082,0.54,1.97,10.99, -0.15,-0.11,0.03
1083,0.75,1.83,10.44, -0.16,-0.18,0.05
1084,1.03,1.76,10.14, -0.12,-0.08,-0.01
1085,0.76,1.45,10.32, -0.04,0.04,-0.02
1086,0.49,1.70,10.52, -0.05,0.08,0.02
1087,0.45,2.11,10.79, -0.20,0.00,0.01
1088,0.70,1.98,10.73, -0.22,-0.03,-0.05
1089,0.76,1.81,10.65, -0.19,-0.03,-0.05
1090,1.00,1.69,10.52, -0.08,0.05,-0.03
1091,0.73,1.64,10.51, -0.01,0.07,-0.03
1092,0.42,1.74,10.75, -0.06,-0.02,0.07
1093,0.56,1.96,11.01, -0.16,-0.07,0.03
1094,0.93,1.73,10.90, -0.15,-0.04,-0.05
1095,0.57,1.59,10.49, -0.06,-0.02,-0.05
1096,0.61,1.70,10.48, -0.01,0.02,0.06
1097,0.71,1.80,10.58, -0.02,0.04,0.07
1098,0.56,1.54,10.79, -0.07,0.00,0.01
1099,0.32,1.60,10.78, -0.13,-0.04,-0.03
1100,0.78,1.99,10.63, -0.21,-0.06,-0.04
1101,1.29,1.68,10.39, -0.20,0.03,-0.09
1102,0.84,1.65,10.47, -0.09,0.08,0.00
1103,0.44,1.66,10.62, 0.01,-0.02,0.08
1104,0.89,1.55,10.59, 0.02,-0.06,0.07
1105,0.90,1.36,10.52, -0.00,-0.03,0.05
1106,0.63,2.03,10.61, -0.00,-0.03,0.11
1107,0.81,1.56,10.49, -0.03,0.02,-0.02
1108,0.99,1.43,10.43, -0.04,0.12,-0.04
1109,0.38,1.79,10.70, -0.06,0.08,-0.06
1110,0.62,1.94,10.71, -0.18,0.03,-0.02
1111,0.86,1.74,10.55, -0.17,-0.03,-0.01
1112,0.79,1.75,10.61, -0.14,-0.08,0.03
1113,0.64,1.94,10.75, -0.06,-0.09,0.10
1114,0.76,1.85,10.80, -0.06,-0.08,0.09
1115,1.08,1.58,10.68, -0.07,-0.02,0.02
1116,0.52,1.83,10.76, -0.05,0.02,-0.03
1117,0.78,1.83,10.79, -0.05,0.00,-0.01
1118,0.70,1.61,10.60, -0.06,-0.01,-0.02
1119,0.94,1.92,10.63, -0.06,-0.00,-0.00
1120,0.85,1.84,10.61, -0.00,0.02,-0.02
1121,0.61,1.64,10.62, -0.02,-0.01,-0.01
1122,0.52,1.66,10.66, -0.07,-0.03,-0.02
1123,0.66,1.57,10.46, -0.06,-0.00,-0.05
1124,0.74,1.55,10.28, -0.03,0.02,0.01
1125,0.61,1.52,10.45, -0.05,0.06,0.05
1126,0.46,2.13,10.68, -0.12,-0.01,0.01
1127,1.10,1.59,10.17, -0.04,-0.02,-0.06
1128,0.70,1.49,10.20, 0.03,0.01,0.03
1129,0.54,1.61,10.33, -0.07,0.01,0.04
1130,0.43,1.79,10.72, -0.20,-0.06,-0.02
1131,0.60,1.73,10.62, -0.17,-0.11,-0.02
1132,0.83,1.75,10.54, -0.13,-0.06,-0.02
1133,0.73,1.60,10.45, -0.12,-0.00,-0.01
1134,0.90,1.87,10.42, -0.05,0.07,-0.01
1135,0.63,1.64,10.68, -0.05,0.09,-0.09
1136,0.31,1.68,10.92, -0.10,-0.02,0.02
1137,0.32,1.75,10.83, -0.18,-0.11,-0.00
1138,0.70,1.65,10.55, -0.17,-0.10,-0.00
1139,0.75,1.68,10.35, -0.09,-0.01,-0.05
1140,0.61,1.67,10.58, -0.05,0.01,-0.04
1141,0.54,1.99,10.83, -0.11,-0.02,-0.02
1142,0.64,1.80,10.62, -0.20,-0.08,-0.02
1143,0.68,1.24,10.17, -0.10,-0.04,0.04
1144,0.49,2.09,10.51, 0.02,-0.04,0.16
1145,0.80,1.37,10.48, 0.15,-0.04,0.11
1146,0.74,1.76,10.57, 0.01,0.05,0.07
1147,0.72,1.52,10.27, -0.13,0.04,-0.09
1148,0.75,1.66,10.19, -0.23,0.08,-0.18
1149,0.57,1.68,10.31, -0.29,0.03,-0.19
1150,1.22,1.44,10.93, -0.22,-0.08,0.00
1151,1.04,2.04,11.22, -0.16,-0.15,0.15
1152,1.47,1.61,10.06, -0.03,-0.26,0.31
1153,1.60,1.14,8.91, 0.19,-0.09,0.25
1154,1.77,1.39,9.47, 0.16,0.07,-0.10
1155,1.03,2.83,11.03, -0.03,0.09,-0.42
1156,-0.19,3.06,10.81, -0.15,-0.24,-0.16
1157,-0.02,7.02,7.13, -0.61,-0.95,0.35
1158,0.45,-1.08,0.07, -0.50,-0.92,1.67
1159,-2.86,-0.13,0.74, -0.57,-0.86,1.35
1160,0.66,-0.07,0.66, -0.59,-0.77,1.28
1161,-0.04,0.39,0.80, -0.61,-0.74,1.33
1162,-0.39,0.13,0.79, -0.62,-0.72,1.31
1163,-0.04,0.14,0.84, -0.64,-0.68,1.31
1164,0.15,0.06,0.85, -0.65,-0.66,1.34
1165,-0.13,0.15,0.86, -0.66,-0.64,1.36
1166,-0.06,0.08,0.88, -0.67,-0.62,1.37
1167,0.14,0.12,0.83, -0.68,-0.60,1.41
1168,0.01,0.07,0.93, -0.70,-0.58,1.44
1169,0.05,0.08,0.94, -0.72,-0.55,1.48
1170,0.11,0.08,0.89, -0.73,-0.53,1.53
1171,0.15,0.06,0.97, -0.75,-0.51,1.59
1172,0.08,0.07,0.99, -0.77,-0.48,1.67
1173,0.13,-0.03,1.02, -0.80,-0.45,1.77
1174,0.20,-0.05,1.07, -0.82,-0.42,1.88
1175,0.24,-0.04,1.02, -0.85,-0.39,2.01
1176,0.21,-0.13,1.09, -0.88,-0.34,2.17
1177,0.16,-0.25,1.09, -0.90,-0.31,2.37
1178,0.32,-0.19,1.02, -0.92,-0.27,2.58
1179,0.41,-0.40,1.06, -0.95,-0.18,2.80
1180,0.08,-0.51,1.18, -0.93,-0.11,3.08
1181,0.45,-0.78,1.19, -0.91,-0.01,3.40
1182,0.37,-0.74,1.39, -0.88,0.12,3.75
1183,0.10,-0.94,1.33, -0.79,0.18,4.19
1184,0.45,-1.04,1.34, -0.69,0.28,4.69
1185,0.12,-1.20,1.42, -0.54,0.47,5.17
1186,-0.16,-1.15,1.44, -0.38,0.57,5.66
1187,-0.38,-1.25,1.46, -0.20,0.67,6.17
1188,-0.88,-0.96,1.55, 0.03,0.73,6.74
1189,-0.44,-1.87,1.58, 0.28,0.78,7.30
1190,-1.60,-0.22,1.52, 0.54,0.80,7.80
1191,-1.65,-0.11,1.72, 0.68,0.73,8.10
1192,-1.50,-0.06,1.55, 1.01,0.63,8.61
1193,-2.56,0.11,1.66, 1.06,0.59,8.47
1194,-1.87,3.20,1.77, 1.21,0.46,8.43
1195,-1.68,0.96,1.82, 1.13,0.43,7.77
1196,-2.07,3.74,1.59, 1.16,0.36,7.08
1197,-1.41,2.69,1.75, 1.18,0.30,6.41
1198,-1.18,3.73,1.75, 1.04,0.38,5.02
1199,-1.47,3.42,1.74, 0.95,0.34,3.79
1200,0.56,4.75,1.76, 0.74,0.52,2.17
1201,-2.51,3.00,1.91, 0.62,0.60,1.10
1202,-1.09,4.00,1.60, 0.45,0.69,-0.70
1203,-0.71,4.67,1.59, 0.19,0.87,-2.33
1204,-1.33,3.92,1.60, -0.10,1.10,-3.85
1205,-1.20,4.92,1.82, -0.38,1.22,-5.40
1206,-2.98,3.70,1.68, -0.75,1.32,-6.66
1207,-3.65,2.33,1.76, -1.09,1.30,-7.79
1208,-4.34,2.62,1.94, -1.25,1.11,-8.27
1209,-5.39,0.92,1.98, -1.41,0.83,-8.48
1212,-78.45,78.45,-78.45, 8.73,8.73,8.73
1213,24.16,-8.64,-55.51, 8.73,8.24,8.73
1214,-2.52,11.05,-25.05, 7.00,8.73,-2.17
1215,-3.95,3.54,-10.30, 5.24,7.96,-0.08
1216,-0.53,-0.70,-6.43, 4.82,7.74,0.53
1217,-1.03,0.25,-6.35, 4.80,7.52,0.55
1218,1.07,0.55,-6.10, 4.81,7.48,0.61
1219,-0.73,0.67,-6.34, 4.87,7.41,0.75
1220,-0.13,0.65,-6.23, 4.95,7.34,0.84
1221,-0.16,0.66,-6.22, 5.05,7.25,1.00
1222,-0.19,0.64,-6.17, 5.19,7.14,1.14
1223,0.10,0.59,-6.21, 5.33,7.02,1.28
1224,0.08,0.63,-6.12, 5.49,6.89,1.43
1225,-8.02,-0.86,-3.83, 5.64,5.72,2.37
1226,-13.44,4.85,-2.33, 4.72,-1.16,4.16
1227,-4.71,10.22,-5.51, 0.69,-8.73,1.43
1228,78.45,-55.88,-56.32, 2.66,0.78,-6.80
1229,-25.52,6.37,-10.11, 2.35,5.20,-2.35
1230,1.66,2.89,0.87, 1.80,3.32,-0.55
1231,-1.38,0.81,1.11, 1.79,2.67,0.17
1232,0.31,-0.25,-1.31, 1.91,2.43,0.27
1233,-2.40,0.46,0.41, 1.83,1.39,1.35
1234,-4.15,1.13,1.89, 1.44,-0.86,3.38
1235,-3.10,1.59,3.13, 0.17,-4.23,5.00
1236,0.78,-1.61,0.99, -1.41,-6.71,5.84
1237,18.00,-7.44,-7.84, -2.72,-6.55,4.79
1238,44.65,-31.57,-18.36, 1.91,4.59,-8.54
1239,-0.13,5.65,1.89, 2.98,2.51,3.07
1240,-1.45,0.58,3.09, 1.72,0.52,5.17
1241,1.70,-0.87,2.34, 0.88,-1.00,6.65
1242,5.40,-6.62,1.51, 0.64,-1.49,7.17
1243,6.78,-11.84,0.32, 0.09,-0.53,4.17
1244,-2.00,-14.61,-1.82, 0.57,-0.32,5.83
1245,1.13,-2.21,1.06, 0.57,-0.29,5.03
1246,-0.25,-5.51,2.25, -0.52,0.04,4.36
1247,-1.53,-12.40,1.63, -0.54,0.27,3.57
1248,-3.77,-11.09,-0.55, -0.15,-0.13,3.16
1249,-2.47,-8.84,0.42, 0.06,-0.20,2.91
1250,-2.84,-8.63,0.92, -0.14,-0.03,2.29
1251,-4.19,-9.32,0.57, -0.08,0.08,1.79
1252,-5.20,-8.78,0.45, -0.07,-0.09,0.92
1253,-4.86,-8.49,0.56, -0.07,-0.15,0.16
1254,-3.89,-8.64,0.86, -0.10,-0.06,-0.40
1255,-4.29,-8.87,0.41, -0.10,0.01,-0.65
1256,-3.63,-9.39,0.63, -0.06,-0.02,-0.73
1257,-3.33,-9.10,0.59, -0.07,-0.01,-0.64
1258,-3.01,-9.26,0.46, -0.07,-0.00,-0.43
1259,-2.75,-9.24,0.52, -0.07,-0.01,-0.18
1260,-2.60,-9.28,0.53, -0.08,-0.01,0.06
1261,-2.85,-9.20,0.57, -0.07,-0.02,0.22
1262,-2.79,-9.08,0.56, -0.08,-0.01,0.28
1263,-3.49,-9.06,0.58, -0.08,-0.02,0.23
1264,-3.56,-9.03,0.46, -0.08,-0.01,0.11
1265,-3.56,-9.05,0.55, -0.07,-0.02,-0.02
1266,-3.36,-8.99,0.53, -0.08,-0.02,-0.10
1267,-3.30,-9.17,0.52, -0.08,-0.02,-0.10
1268,-3.21,-9.06,0.53, -0.08,-0.01,-0.05
1269,-3.19,-9.11,0.58, -0.07,-0.01,0.02
1270,-3.26,-9.02,0.56, -0.07,-0.02,0.05
1271,-3.32,-9.07,0.62, -0.08,-0.02,0.04
1272,-3.39,-9.12,0.54, -0.07,-0.01,0.01
1273,-3.27,-9.05,0.60, -0.08,-0.02,-0.02
1274,-3.34,-9.09,0.51, -0.07,-0.02,-0.03
1275,-3.23,-9.16,0.54, -0.08,-0.01,-0.01
1276,-3.31,-9.04,0.55, -0.07,-0.02,0.02
1277,-3.25,-9.05,0.55, -0.07,-0.01,0.01
1278,-3.36,-9.09,0.55, -0.08,-0.01,-0.00
1279,-3.32,-9.14,0.55, -0.08,-0.02,-0.01
1280,-3.33,-9.11,0.59, -0.07,-0.01,-0.01
1281,-3.31,-9.10,0.52, -0.07,-0.01,0.00
1282,-3.26,-9.05,0.48, -0.07,-0.01,0.01
1283,-3.35,-9.12,0.53, -0.07,-0.01,0.00
1284,-3.33,-9.11,0.45, -0.07,-0.01,-0.00
1285,-3.29,-9.14,0.51, -0.07,-0.01,-0.00
1286,-3.34,-9.12,0.55, -0.08,-0.01,0.00
1287,-3.29,-9.08,0.52, -0.07,-0.01,-0.00
1288,-3.27,-9.08,0.56, -0.07,-0.02,-0.00
1289,-3.38,-9.03,0.59, -0.08,-0.01,0.00
1290,-3.30,-9.08,0.55, -0.07,-0.02,-0.00
1291,-3.31,-9.09,0.53, -0.07,-0.02,-0.00
1292,-3.27,-9.10,0.50, -0.08,-0.01,-0.00
1293,-3.29,-9.07,0.43, -0.07,-0.02,-0.00
1294,-3.28,-9.05,0.58, -0.08,-0.02,-0.00
1295,-3.33,-9.10,0.54, -0.08,-0.02,-0.00
1296,-3.28,-9.12,0.51, -0.07,-0.01,-0.01
1297,-3.33,-9.08,0.55, -0.07,-0.02,-0.00
1298,-3.30,-9.09,0.57, -0.07,-0.02,-0.00
1299,-3.24,-9.06,0.54, -0.07,-0.01,-0.00
1300,-3.30,-9.05,0.56, -0.08,-0.01,-0.00
1301,-3.30,-9.06,0.61, -0.07,-0.02,-0.00
1302,-3.35,-9.05,0.56, -0.08,-0.02,-0.00
1303,-3.32,-9.08,0.54, -0.07,-0.02,-0.00
1304,-3.31,-9.16,0.50, -0.08,-0.02,-0.00
1305,-3.32,-9.06,0.58, -0.07,-0.02,-0.00
1306,-3.30,-9.03,0.57, -0.07,-0.02,-0.00
1307,-3.30,-9.12,0.57, -0.07,-0.01,0.00
1308,-3.31,-9.04,0.50, -0.08,-0.01,-0.00
1309,-3.31,-9.14,0.60, -0.07,-0.01,-0.00
1310,-3.28,-9.09,0.59, -0.08,-0.02,-0.00
1311,-3.30,-9.08,0.52, -0.07,-0.02,-0.00
1312,-3.26,-9.07,0.58, -0.07,-0.02,-0.00
1313,-3.30,-9.09,0.55, -0.08,-0.01,0.00
1314,-3.30,-9.05,0.61, -0.07,-0.02,0.00
1315,-3.30,-9.09,0.54, -0.08,-0.02,-0.00
1316,-3.20,-9.11,0.50, -0.07,-0.02,-0.00
1317,-3.25,-9.08,0.51, -0.07,-0.02,-0.00
1318,-3.28,-9.10,0.54, -0.07,-0.02,0.00
1319,-3.26,-9.10,0.51, -0.07,-0.01,-0.00
1320,-3.28,-9.09,0.57, -0.07,-0.02,0.00
1321,-3.28,-9.09,0.62, -0.07,-0.02,-0.00
1322,-3.25,-9.09,0.63, -0.07,-0.01,-0.00
1323,-3.31,-9.08,0.60, -0.07,-0.01,0.00
1324,-3.32,-9.11,0.53, -0.07,-0.01,-0.00
1325,-3.37,-9.05,0.55, -0.08,-0.02,-0.00
1326,-3.30,-9.11,0.52, -0.08,-0.01,0.00
1327,-3.32,-9.14,0.50, -0.07,-0.02,0.00
1328,-3.34,-9.09,0.61, -0.07,-0.02,-0.00
1329,-3.34,-9.14,0.58, -0.08,-0.01,-0.00
1330,-3.30,-9.07,0.53, -0.08,-0.02,0.00
1331,-3.34,-9.06,0.50, -0.08,-0.01,-0.00
1332,-3.37,-9.09,0.62, -0.07,-0.02,-0.00
1333,-3.31,-9.09,0.55, -0.07,-0.02,0.00
1334,-3.27,-9.06,0.59, -0.07,-0.01,-0.00
1335,-3.30,-9.04,0.56, -0.08,-0.01,-0.00
1336,-3.30,-9.07,0.57, -0.07,-0.02,-0.00
1337,-3.35,-9.10,0.54, -0.07,-0.02,-0.00
1338,-3.30,-9.11,0.54, -0.08,-0.02,-0.00
1339,-3.26,-9.16,0.54, -0.07,-0.02,-0.00
1340,-3.37,-9.13,0.51, -0.07,-0.02,-0.00
1341,-3.28,-9.04,0.51, -0.07,-0.01,-0.00
1342,-3.33,-9.08,0.60, -0.08,-0.01,-0.00
1343,-3.33,-9.06,0.51, -0.07,-0.01,-0.00
1344,-3.30,-9.12,0.50, -0.08,-0.01,-0.00
1345,-3.27,-9.10,0.60, -0.07,-0.01,-0.00
1346,-3.31,-9.02,0.52, -0.07,-0.01,-0.00
1347,-3.32,-9.10,0.57, -0.07,-0.02,-0.00
1348,-3.24,-9.05,0.50, -0.07,-0.01,0.00
1349,-3.32,-9.11,0.59, -0.07,-0.02,-0.00
1350,-3.40,-9.12,0.55, -0.08,-0.02,-0.00
1351,-3.34,-9.17,0.53, -0.07,-0.01,-0.00
1352,-3.35,-9.07,0.57, -0.08,-0.02,-0.00
1353,-3.29,-9.10,0.55, -0.07,-0.01,-0.00
1354,-3.31,-9.12,0.51, -0.08,-0.02,-0.00
1355,-3.32,-9.10,0.57, -0.07,-0.02,-0.00
1356,-3.34,-9.09,0.59, -0.07,-0.02,-0.00
1357,-3.32,-9.12,0.50, -0.07,-0.02,-0.00
1358,-3.29,-9.05,0.58, -0.07,-0.01,-0.00
1359,-3.32,-9.12,0.49, -0.07,-0.02,0.00
1360,-3.36,-9.08,0.55, -0.07,-0.02,-0.00
1361,-3.29,-9.15,0.58, -0.08,-0.02,-0.00
1362,-3.31,-9.06,0.54, -0.07,-0.01,-0.00
1363,-3.28,-9.08,0.55, -0.07,-0.01,-0.00
1364,-3.32,-9.03,0.55, -0.07,-0.01,-0.00
1365,-3.29,-9.00,0.55, -0.07,-0.02,0.00
1366,-3.38,-9.05,0.55, -0.07,-0.02,-0.00
1367,-3.33,-9.05,0.45, -0.07,-0.01,-0.00
1368,-3.24,-9.09,0.49, -0.08,-0.01,-0.00
1369,-3.31,-9.09,0.59, -0.07,-0.01,-0.00
1370,-3.24,-9.11,0.55, -0.07,-0.02,0.00
1371,-3.38,-9.06,0.58, -0.07,-0.02,0.00
1372,-3.28,-9.05,0.46, -0.07,-0.02,-0.00
1373,-3.28,-9.00,0.52, -0.08,-0.01,-0.00
1374,-3.27,-9.01,0.54, -0.07,-0.01,-0.00
1375,-3.30,-9.11,0.51, -0.08,-0.02,-0.00
1376,-3.27,-9.03,0.52, -0.08,-0.02,-0.00
1377,-3.29,-9.09,0.53, -0.07,-0.02,-0.00
1378,-3.24,-9.14,0.57, -0.07,-0.01,-0.00
1379,-3.32,-9.03,0.53, -0.07,-0.02,-0.00
1380,-3.34,-9.09,0.64, -0.07,-0.01,0.00
1381,-3.28,-9.05,0.61, -0.07,-0.01,-0.00
1382,-3.28,-9.06,0.53, -0.07,-0.02,-0.00
1383,-3.37,-9.10,0.55, -0.08,-0.02,0.00
1384,-3.26,-9.06,0.53, -0.07,-0.02,0.00
1385,-3.28,-9.05,0.49, -0.07,-0.02,0.00
1386,-3.27,-9.14,0.51, -0.08,-0.01,-0.00
1387,-3.30,-9.08,0.52, -0.07,-0.01,-0.00
1388,-3.27,-9.10,0.52, -0.07,-0.01,-0.00
1389,-3.33,-9.07,0.55, -0.07,-0.01,-0.00
1390,-3.28,-9.07,0.51, -0.08,-0.01,-0.00
1391,-3.35,-9.21,0.57, -0.08,-0.01,-0.00
1392,-3.33,-9.09,0.51, -0.08,-0.02,0.00
1393,-3.29,-9.14,0.52, -0.08,-0.02,-0.00
1394,-3.27,-9.11,0.57, -0.07,-0.02,-0.00
1395,-3.30,-9.10,0.57, -0.07,-0.02,-0.00
1396,-3.32,-9.04,0.52, -0.08,-0.02,-0.00
1397,-3.35,-9.07,0.51, -0.07,-0.01,-0.00
1398,-3.31,-9.08,0.56, -0.07,-0.01,-0.00
1399,-3.34,-9.06,0.55, -0.07,-0.02,0.00
1400,-3.35,-9.12,0.54, -0.07,-0.02,-0.00
1401,-3.30,-9.15,0.57, -0.07,-0.02,-0.00
1402,-3.32,-9.11,0.47, -0.07,-0.02,-0.00
1403,-3.34,-9.09,0.50, -0.07,-0.02,-0.00
1404,-3.24,-9.06,0.56, -0.08,-0.01,-0.00
1405,-3.30,-9.06,0.54, -0.08,-0.02,-0.00
1406,-3.27,-9.09,0.58, -0.07,-0.02,-0.00
1407,-3.33,-9.09,0.55, -0.08,-0.02,-0.00
1408,-3.31,-9.12,0.58, -0.07,-0.02,-0.00
1409,-3.33,-9.03,0.53, -0.07,-0.02,-0.00
1410,-3.33,-9.14,0.57, -0.07,-0.02,-0.00
1411,-3.25,-9.13,0.53, -0.08,-0.02,-0.01
1412,-3.28,-9.11,0.53, -0.08,-0.01,-0.00
1413,-3.34,-9.07,0.52, -0.07,-0.01,-0.00
1414,-3.29,-9.12,0.55, -0.07,-0.01,-0.00
1415,-3.34,-9.05,0.58, -0.07,-0.01,-0.00
1416,-3.32,-9.12,0.61, -0.07,-0.02,-0.00
1417,-3.33,-9.10,0.56, -0.08,-0.01,-0.00
1418,-3.34,-9.06,0.58, -0.07,-0.01,-0.00
1419,-3.27,-9.11,0.52, -0.07,-0.02,-0.00
1420,-3.33,-9.09,0.62, -0.07,-0.02,0.00
1421,-3.23,-9.08,0.54, -0.07,-0.02,-0.00
1422,-3.25,-9.08,0.49, -0.07,-0.02,-0.00
1423,-3.44,-9.05,0.55, -0.07,-0.02,0.00
1424,-3.33,-9.09,0.56, -0.08,-0.01,-0.00
1425,-3.33,-9.08,0.52, -0.07,-0.02,0.00
1426,-3.23,-9.13,0.52, -0.07,-0.02,-0.00
1427,-3.34,-9.11,0.54, -0.07,-0.02,-0.00
1428,-3.34,-9.03,0.51, -0.07,-0.01,-0.00
1429,-3.34,-9.05,0.48, -0.07,-0.01,-0.00
1430,-3.36,-9.03,0.55, -0.08,-0.01,0.00
1431,-3.28,-9.09,0.50, -0.07,-0.02,-0.00
1432,-3.31,-9.14,0.57, -0.07,-0.02,-0.00
1433,-3.33,-9.19,0.56, -0.07,-0.02,0.01
1434,-3.25,-9.08,0.60, -0.08,-0.01,-0.01
1435,-3.24,-9.03,0.54, -0.07,-0.01,-0.00
1436,-3.38,-9.17,0.61, -0.07,-0.01,0.01
1437,-3.27,-9.08,0.55, -0.07,-0.01,0.00
1438,-3.33,-9.13,0.51, -0.07,-0.02,-0.00
1439,-3.33,-9.11,0.56, -0.08,-0.01,-0.00
1440,-3.30,-9.09,0.48, -0.07,-0.01,-0.00
1441,-3.27,-9.15,0.59, -0.07,-0.02,0.00
1442,-3.39,-9.04,0.52, -0.07,-0.02,-0.00
1443,-3.40,-9.04,0.52, -0.07,-0.01,-0.00
1444,-3.40,-9.13,0.53, -0.07,-0.01,-0.00
1445,-3.28,-9.06,0.49, -0.08,-0.01,-0.00
1446,-3.31,-9.13,0.55, -0.07,-0.02,-0.00
1447,-3.28,-9.14,0.56, -0.07,-0.01,-0.00
1448,-3.30,-9.11,0.51, -0.07,-0.02,-0.00
1449,-3.32,-9.07,0.50, -0.07,-0.02,0.00
1450,-3.27,-9.03,0.48, -0.07,-0.02,-0.00
1451,-3.30,-9.11,0.49, -0.07,-0.01,-0.00
1452,-3.34,-9.10,0.52, -0.07,-0.02,-0.00
1453,-3.34,-9.08,0.54, -0.08,-0.02,-0.00
1454,-3.26,-9.13,0.56, -0.07,-0.01,0.00
1455,-3.36,-9.12,0.54, -0.07,-0.01,-0.01
1456,-3.26,-9.08,0.54, -0.07,-0.02,-0.00
1457,-3.29,-9.17,0.49, -0.07,-0.02,0.00
1458,-3.17,-9.06,0.48, -0.07,-0.01,0.00
1459,-3.34,-9.09,0.60, -0.07,-0.01,-0.00
1460,-3.31,-9.11,0.54, -0.08,-0.01,-0.00
1461,-3.33,-9.13,0.52, -0.07,-0.02,-0.00
1462,-3.39,-9.11,0.54, -0.08,-0.01,-0.00
1463,-3.39,-9.07,0.53, -0.07,-0.01,-0.00
1464,-3.22,-9.08,0.54, -0.07,-0.02,-0.00
1465,-3.34,-9.12,0.50, -0.08,-0.01,-0.00
1466,-3.30,-9.02,0.49, -0.07,-0.02,-0.00
1467,-3.29,-9.04,0.50, -0.07,-0.02,-0.00
1468,-3.27,-9.07,0.69, -0.07,-0.02,-0.00
1469,-3.32,-9.07,0.56, -0.07,-0.02,0.00
1470,-3.98,-7.65,0.69, -0.14,-0.04,0.00
1471,-5.56,-8.10,0.62, -0.29,-0.13,-0.38
1472,-7.23,-8.66,0.06, -0.12,-0.67,-0.28
1473,-7.98,-8.87,-0.40, -0.30,-1.21,0.31
1474,4.49,-12.25,-2.29, 0.24,0.23,-0.82
1475,-8.04,-10.13,-2.59, 0.72,0.58,-1.20
1476,-0.33,-6.79,3.57, 0.50,1.24,0.03
1477,-6.65,-10.69,4.05, 0.84,0.91,0.38
1478,-5.53,-13.81,3.29, 0.54,0.28,0.23
1479,-5.02,-13.03,2.80, 0.89,-0.56,0.59
1480,5.67,-12.16,2.48, 1.63,-0.59,0.08
1481,-2.63,-9.42,1.03, 2.26,-0.30,0.41
1482,-5.76,-8.90,0.11, 2.27,0.08,0.27
1483,-5.95,-10.35,6.87, 1.77,0.20,0.44
1484,-0.67,-15.47,9.12, 2.78,0.80,0.32
1485,1.42,-15.08,9.03, 4.23,2.44,-0.44
1486,-5.72,-12.71,10.68, 4.15,2.35,-0.42
1487,-6.85,-10.86,9.24, 4.11,1.33,-0.37
1488,-6.92,-10.80,11.03, 3.88,0.57,-0.31
1489,-3.47,-11.03,10.34, 3.95,0.67,-0.14
1490,-4.43,-10.14,11.38, 4.29,1.40,-0.28
1491,-6.82,-8.04,10.93, 4.12,1.49,-0.34
1492,-6.68,-7.00,10.57, 3.44,0.64,-0.28
1493,-5.15,-5.37,9.11, 2.89,0.11,-0.01
1494,-3.86,-5.72,10.75, 2.67,0.22,0.03
1495,-6.08,-8.07,10.62, 2.82,0.80,-0.11
1496,-3.41,-4.48,9.71, 3.01,0.18,-0.01
1497,-3.77,-2.25,7.76, 2.77,-0.07,0.16
1498,-4.39,-1.96,8.38, 2.40,-0.09,0.25
1499,-2.59,-1.68,7.57, 2.18,0.22,0.34
1500,-5.28,-0.60,7.19, 2.14,0.46,0.58
1501,-4.62,0.15,6.41, 1.94,-0.15,0.61
1502,-2.54,-0.58,5.04, 1.78,-0.36,0.11
1503,-0.95,0.27,4.95, 1.52,-0.36,-0.30
1504,-3.19,0.77,5.78, 1.20,-0.03,0.10
1505,-1.17,1.02,5.68, 1.06,0.59,-0.14
1506,-0.80,1.69,8.75, 0.61,1.12,-0.46
1507,-4.88,1.64,7.51, -0.38,0.69,-0.68
1508,-3.31,-0.52,7.28, -0.21,0.66,-0.61
1509,-6.46,1.48,7.90, 0.24,0.40,0.46
1510,-2.63,1.93,2.94, 0.18,0.57,0.92
1511,-5.34,-0.87,5.38, 0.11,1.01,-0.50
1512,-10.66,-0.43,9.06, 1.31,-0.09,-0.77
1513,-4.48,4.83,7.26, 1.02,-0.72,0.87
1514,-5.42,3.91,7.19, 0.35,-0.45,0.94
1515,-8.13,2.78,6.61, -0.11,-0.71,0.21
1516,-5.55,1.13,7.13, -0.25,-0.98,-0.20
1517,-4.17,1.61,6.85, -0.13,-0.92,0.50
1518,-4.98,2.78,6.65, -0.31,-0.86,0.65
1519,-4.70,2.26,6.68, -0.35,-0.81,0.58
1520,-4.85,1.05,6.77, -0.38,-0.86,0.47
1521,5.93,1.58,6.70, -0.16,-0.32,0.57
1522,0.66,3.19,7.52, -0.37,0.94,1.30
1523,-9.58,5.69,7.82, -0.70,0.94,1.55
1524,-11.03,1.26,7.19, -1.12,0.07,0.15
1525,-6.29,-0.84,7.18, -0.22,-0.99,0.94
1526,-3.45,-0.24,7.34, 0.38,-1.15,1.08
1527,-0.82,3.42,8.68, 0.48,-0.72,1.68
1528,-3.71,2.99,8.57, 0.21,-0.40,0.79
1529,-2.83,4.12,8.87, -0.03,-0.19,0.62
1530,-4.27,4.07,9.49, -0.36,-0.16,0.36
1531,-2.41,1.15,9.78, -0.21,-0.10,0.36
1532,-3.53,2.37,9.59, -0.02,-0.00,0.67
1533,-2.64,2.36,9.88, 0.15,-0.05,0.81
1534,-0.85,3.95,9.94, 0.21,0.11,0.64
1535,-1.13,4.33,9.72, 0.17,0.11,0.50
1536,-2.21,4.37,9.86, 0.12,0.20,0.50
1537,-3.01,4.25,9.93, 0.06,0.15,0.64
1538,-2.69,4.17,9.81, 0.06,0.00,0.75
1539,-2.32,4.80,9.85, 0.02,-0.07,0.66
1540,-2.68,4.45,10.02, -0.09,-0.16,0.47
1541,-1.33,2.83,9.82, 0.07,-0.10,0.49
1542,-2.88,4.68,9.44, 0.16,-0.07,0.52
1543,-3.72,4.62,9.18, 0.05,-0.28,0.12
1544,-2.57,4.12,9.74, 0.01,-0.40,0.14
1545,-0.58,4.47,9.57, 0.01,-0.33,0.21
1546,-0.76,4.75,9.23, -0.11,-0.12,0.13
1547,-1.73,4.43,9.03, -0.20,-0.01,-0.11
1548,-1.48,4.83,9.17, -0.20,-0.03,-0.20
1549,-1.83,4.49,9.25, -0.18,-0.10,-0.21
1550,-2.52,4.16,9.22, -0.16,-0.16,-0.06
1551,-2.79,3.80,9.21, -0.02,-0.28,-0.18
1552,-1.61,4.99,8.96, 0.07,-0.32,0.07
1553,-1.53,4.42,9.43, -0.07,-0.24,-0.27
1554,-2.07,4.86,9.61, -0.12,-0.22,-0.40
1555,-1.61,3.99,9.45, -0.14,-0.19,-0.35
1556,-0.93,3.67,9.14, -0.04,-0.10,-0.43
1557,-1.04,4.34,9.34, -0.02,0.04,-0.38
1558,-2.87,3.89,9.81, 0.07,0.07,-0.25
1559,-4.08,4.99,10.62, 0.06,0.00,-0.02
1560,-3.30,3.93,10.59, 0.01,-0.13,0.17
1561,-1.79,2.98,9.61, 0.02,-0.19,0.20
1562,-1.17,2.92,9.23, -0.08,-0.18,0.02
1563,-1.45,2.88,9.61, -0.28,-0.08,-0.28
1564,-1.79,3.21,9.83, -0.32,-0.06,-0.28
1565,-2.17,3.40,9.83, -0.29,-0.22,-0.34
1566,-0.64,2.53,10.05, -0.12,-0.21,-0.23
1567,-1.31,2.35,9.96, 0.03,-0.05,-0.15
1568,-1.81,3.04,9.52, 0.11,-0.10,0.01
1569,-1.64,3.31,10.01, 0.04,-0.01,-0.13
1570,-1.49,3.44,9.72, 0.03,-0.01,-0.10
1571,-1.60,3.68,9.91, -0.02,-0.08,-0.16
1572,-1.77,3.68,10.22, -0.12,-0.08,-0.28
1573,-4.56,3.23,9.73, -0.17,-0.58,0.01
1574,-2.03,3.17,11.20, -0.08,-0.16,-0.09
1575,-2.35,3.69,9.90, -0.09,-0.36,-0.06
1576,-1.85,4.75,10.72, 0.04,-0.37,0.48
1577,-1.04,3.38,10.06, -0.23,-0.29,-0.00
