Step,AccX,AccY,AccZ,GyrX,GyrY,GyrZ
0,-1.05,-2.41,10.40, -0.04,-0.05,-0.22
1,1.53,1.45,10.60, -0.02,0.06,-0.10
2,-0.93,-1.25,10.69, -0.12,-0.00,-0.21
3,0.99,0.10,10.83, -0.07,-0.08,-0.10
4,0.79,-1.29,10.22, -0.06,0.02,-0.08
5,0.61,-0.58,10.47, -0.07,0.08,-0.01
6,0.62,-0.38,10.83, -0.06,0.09,0.01
7,0.49,-0.52,10.78, -0.07,0.07,-0.01
8,0.58,-0.54,10.70, -0.07,0.07,-0.04
9,0.60,-0.76,10.81, -0.06,0.04,-0.00
10,0.25,-0.30,10.69, -0.07,-0.00,-0.00
11,0.34,-0.43,10.72, -0.07,-0.06,0.12
12,1.03,-0.66,10.72, -0.05,-0.03,0.09
13,0.79,-0.50,10.74, -0.06,0.02,-0.02
14,-0.20,-0.46,10.66, -0.05,-0.03,0.01
15,-2.48,-1.07,10.55, 0.04,-0.27,0.01
16,-0.09,-1.58,10.44, -0.08,-0.23,-0.10
17,-0.46,-2.33,10.93, 0.21,-0.49,0.34
18,2.21,-3.14,10.39, 0.54,-0.28,0.72
19,0.35,-1.79,10.63, 0.80,-0.40,0.73
20,8.61,4.89,7.87, 0.28,-0.21,-0.77
21,2.29,5.60,10.39, -0.89,0.64,-1.63
22,-0.59,-5.51,11.69, -0.41,0.04,-1.03
23,2.40,-0.46,10.54, 0.05,0.17,0.23
24,3.63,0.47,10.55, -0.08,0.65,0.48
25,-1.23,0.88,10.03, -0.26,0.44,-0.37
26,0.74,0.35,10.67, -0.28,0.20,-0.69
27,-1.52,-0.54,11.46, -0.37,0.11,-0.68
28,-1.81,-0.23,10.88, -0.32,-0.29,-0.44
29,1.26,-3.36,10.95, -0.29,-0.27,-0.64
30,3.12,-3.54,9.99, -0.03,-0.14,-0.18
31,1.19,1.41,11.07, -0.09,-0.04,-0.08
32,-1.00,-1.57,10.55, -0.09,-0.02,-0.50
33,0.04,0.32,10.65, -0.13,-0.22,-0.22
34,0.13,-0.39,10.80, -0.10,-0.30,-0.23
35,1.53,-0.53,10.64, -0.13,-0.24,-0.36
36,1.58,0.38,10.61, -0.15,-0.13,-0.41
37,1.94,0.73,10.80, -0.26,0.05,-0.52
38,0.75,-1.33,10.65, -0.24,-0.01,-0.43
39,1.36,-1.75,10.43, -0.06,0.01,-0.15
40,0.93,-0.81,10.72, -0.01,-0.02,0.01
41,1.30,-0.04,10.75, -0.03,0.02,-0.07
42,1.19,0.08,10.82, -0.10,0.09,-0.16
43,0.69,-0.78,10.83, -0.12,0.11,-0.27
44,0.51,-1.01,10.58, -0.07,0.10,-0.28
45,0.38,-1.25,10.47, 0.01,0.03,-0.18
46,0.09,-1.51,10.54, 0.10,-0.08,0.08
47,-0.07,3.01,11.78, 0.07,-0.11,0.38
48,1.95,-0.13,9.92, -0.19,-0.04,-0.20
49,-0.03,-0.89,10.76, -0.04,-0.04,0.06
50,0.35,-0.45,10.77, -0.08,-0.11,-0.03
51,1.39,-0.40,10.76, -0.06,-0.09,0.03
52,1.06,-0.76,10.58, -0.10,-0.05,-0.03
53,1.02,-0.05,10.69, -0.12,-0.03,-0.02
54,0.91,-1.60,10.47, -0.02,-0.03,-0.07
55,0.79,-0.06,10.38, -0.09,0.04,-0.04
56,0.50,-0.47,10.86, -0.05,-0.01,0.00
57,0.72,-0.43,10.77, -0.09,-0.04,-0.01
58,1.27,-0.52,10.69, -0.07,-0.05,0.02
59,1.25,-0.84,10.67, -0.07,-0.00,-0.00
60,0.97,-0.22,10.69, -0.06,0.02,0.01
61,0.34,-0.57,10.71, -0.07,-0.01,0.01
62,0.77,-0.30,10.75, -0.09,-0.05,0.00
63,1.29,-0.50,10.69, -0.08,-0.04,0.01
64,1.12,-0.77,10.64, -0.07,0.00,0.01
65,0.67,-0.25,10.75, -0.07,0.01,0.00
66,0.52,-0.39,10.69, -0.07,-0.04,0.01
67,0.96,-0.60,10.71, -0.08,-0.05,0.01
68,1.32,-0.44,10.64, -0.07,-0.01,0.01
69,1.02,-0.55,10.71, -0.06,0.01,0.01
70,0.57,-0.35,10.70, -0.07,-0.00,0.00
71,0.70,-0.30,10.72, -0.08,-0.04,0.01
72,1.10,-0.58,10.59, -0.08,-0.04,0.01
73,1.14,-0.54,10.71, -0.07,-0.00,0.01
74,0.75,-0.41,10.74, -0.06,0.00,0.01
75,0.62,-0.50,10.74, -0.07,-0.02,0.01
76,0.93,-0.44,10.65, -0.08,-0.04,0.01
77,1.14,-0.52,10.68, -0.07,-0.02,0.01
78,0.96,-0.47,10.71, -0.07,0.00,0.00
79,0.62,-0.38,10.71, -0.07,-0.02,0.01
80,0.88,-0.51,10.65, -0.08,-0.04,0.01
81,1.22,-0.58,10.74, -0.07,-0.02,0.01
82,1.01,-0.55,10.64, -0.07,0.00,0.01
83,0.84,-0.51,10.74, -0.08,-0.03,0.01
84,1.09,-0.52,10.64, -0.07,-0.02,0.00
85,0.93,-0.41,10.63, -0.08,0.00,-0.00
86,0.66,-0.33,10.75, -0.07,-0.01,0.01
87,0.72,-0.58,10.59, -0.08,-0.03,0.00
88,1.06,-0.52,10.72, -0.08,-0.03,0.01
89,1.10,-0.53,10.62, -0.06,-0.01,0.01
90,0.85,-0.42,10.74, -0.07,0.00,0.00
91,0.82,-0.28,10.69, -0.07,-0.02,0.01
92,0.96,-0.36,10.80, -0.07,-0.03,0.01
93,0.94,-0.51,10.65, -0.08,-0.01,0.01
94,0.89,-0.50,10.63, -0.07,-0.01,0.00
95,0.70,-0.63,10.68, -0.07,-0.03,0.01
96,0.93,-0.59,10.70, -0.07,-0.02,0.01
97,0.94,-0.54,10.70, -0.06,-0.01,0.01
98,0.81,-0.35,10.58, -0.07,-0.00,0.01
99,0.68,-0.34,10.70, -0.07,-0.01,0.01
100,0.78,-0.44,10.70, -0.08,-0.03,0.01
101,1.02,-0.58,10.70, -0.08,-0.03,0.01
102,1.06,-0.64,10.63, -0.07,-0.01,0.01
103,0.87,-0.63,10.62, -0.07,-0.01,0.01
104,0.78,-0.39,10.67, -0.07,-0.02,0.01
105,0.90,-0.47,10.63, -0.07,-0.02,0.01
106,0.98,-0.44,10.68, -0.07,-0.02,0.01
107,0.88,-0.46,10.71, -0.07,-0.01,0.01
108,0.94,-0.51,10.62, -0.07,-0.02,0.01
109,1.06,-0.53,10.63, -0.07,-0.02,0.01
110,1.09,-0.42,10.72, -0.07,-0.01,0.01
111,0.87,-0.43,10.70, -0.07,-0.01,0.01
112,0.77,-0.44,10.68, -0.07,-0.02,0.01
113,0.98,-0.45,10.67, -0.08,-0.03,0.00
114,0.85,-0.36,10.62, -0.07,-0.01,0.01
115,0.75,-0.60,10.67, -0.07,-0.02,0.01
116,0.88,-0.45,10.74, -0.08,-0.02,0.01
117,1.00,-0.54,10.73, -0.07,-0.02,0.01
118,0.84,-0.35,10.72, -0.07,-0.01,0.01
119,0.84,-0.52,10.64, -0.07,-0.02,0.01
120,0.93,-0.45,10.78, -0.07,-0.02,0.01
121,0.96,-0.50,10.67, -0.07,-0.01,0.01
122,0.82,-0.45,10.66, -0.07,-0.01,0.01
123,0.76,-0.45,10.59, -0.07,-0.02,0.01
124,0.92,-0.46,10.66, -0.07,-0.02,0.01
125,0.94,-0.53,10.71, -0.07,-0.02,0.01
126,0.93,-0.50,10.72, -0.07,-0.01,0.01
127,0.85,-0.45,10.69, -0.07,-0.02,0.01
128,0.92,-0.51,10.59, -0.07,-0.02,0.01
129,0.94,-0.47,10.67, -0.07,-0.02,0.01
130,0.98,-0.42,10.65, -0.07,-0.01,0.01
131,0.87,-0.50,10.61, -0.07,-0.01,0.01
132,0.85,-0.48,10.68, -0.07,-0.02,0.01
133,0.91,-0.46,10.72, -0.07,-0.02,0.01
134,0.92,-0.48,10.57, -0.07,-0.01,0.01
135,0.88,-0.45,10.66, -0.07,-0.01,0.01
136,0.85,-0.50,10.73, -0.07,-0.02,0.01
137,0.93,-0.52,10.73, -0.07,-0.02,0.01
138,1.00,-0.51,10.71, -0.07,-0.01,0.01
139,0.89,-0.52,10.67, -0.07,-0.01,0.00
140,0.78,-0.44,10.67, -0.07,-0.01,0.01
141,0.86,-0.46,10.80, -0.07,-0.02,0.01
142,0.91,-0.44,10.61, -0.07,-0.02,0.01
143,0.88,-0.58,10.54, -0.07,-0.02,0.01
144,0.89,-0.47,10.64, -0.07,-0.02,0.01
145,0.93,-0.57,10.75, -0.07,-0.02,0.01
146,0.91,-0.45,10.66, -0.07,-0.02,0.01
147,0.85,-0.52,10.66, -0.07,-0.02,0.01
148,0.81,-0.52,10.69, -0.07,-0.02,0.01
149,0.99,-0.38,10.68, -0.07,-0.01,0.01
150,0.91,-0.62,10.70, -0.07,-0.02,0.01
151,0.85,-0.40,10.65, -0.08,-0.02,0.00
152,0.81,-0.45,10.60, -0.07,-0.02,0.01
153,0.90,-0.62,10.66, -0.07,-0.02,0.01
154,1.02,-0.51,10.63, -0.07,-0.02,0.00
155,0.85,-0.47,10.64, -0.06,-0.01,0.01
156,0.80,-0.48,10.71, -0.07,-0.02,0.01
157,0.98,-0.39,10.66, -0.08,-0.03,0.00
158,0.83,-0.48,10.68, -0.07,-0.02,0.01
159,0.96,-0.52,10.72, -0.07,-0.01,0.01
160,0.75,-0.41,10.78, -0.07,-0.01,0.01
161,0.80,-0.50,10.67, -0.07,-0.03,0.01
162,0.97,-0.50,10.70, -0.07,-0.02,0.01
163,0.99,-0.37,10.64, -0.07,-0.01,0.01
164,0.77,-0.46,10.62, -0.07,-0.02,0.01
165,0.85,-0.44,10.72, -0.07,-0.02,0.01
166,0.93,-0.46,10.73, -0.07,-0.02,0.01
167,0.78,-0.45,10.74, -0.07,-0.01,0.01
168,0.88,-0.40,10.61, -0.07,-0.01,0.01
169,0.99,-0.45,10.66, -0.07,-0.02,0.01
170,0.90,-0.50,10.72, -0.07,-0.02,0.01
171,0.90,-0.47,10.63, -0.07,-0.01,0.01
172,0.79,-0.46,10.62, -0.07,-0.01,0.01
173,0.85,-0.45,10.69, -0.07,-0.02,0.00
174,0.88,-0.45,10.68, -0.07,-0.01,0.01
175,0.76,-0.47,10.57, -0.07,-0.02,0.01
176,0.98,-0.51,10.67, -0.07,-0.02,0.01
177,0.91,-0.55,10.72, -0.07,-0.02,0.01
178,0.88,-0.44,10.75, -0.07,-0.01,0.01
179,0.82,-0.45,10.75, -0.07,-0.01,0.01
180,0.84,-0.45,10.65, -0.07,-0.02,0.01
181,0.91,-0.51,10.74, -0.07,-0.02,0.01
182,0.95,-0.53,10.68, -0.07,-0.01,0.01
183,0.83,-0.47,10.70, -0.07,-0.01,0.01
184,0.90,-0.52,10.65, -0.07,-0.02,0.01
185,0.85,-0.45,10.65, -0.07,-0.02,0.01
186,0.96,-0.47,10.74, -0.07,-0.01,0.01
187,0.91,-0.48,10.66, -0.07,-0.01,0.01
188,0.91,-0.53,10.66, -0.07,-0.02,0.01
189,0.92,-0.51,10.63, -0.08,-0.02,0.01
190,0.94,-0.53,10.70, -0.07,-0.01,0.01
191,0.90,-0.49,10.63, -0.07,-0.01,0.01
192,0.88,-0.43,10.59, -0.07,-0.02,0.01
193,0.90,-0.49,10.68, -0.07,-0.02,0.01
194,0.97,-0.50,10.72, -0.07,-0.01,0.01
195,0.89,-0.47,10.70, -0.07,-0.01,0.01
196,0.78,-0.54,10.73, -0.07,-0.02,0.01
197,0.88,-0.44,10.69, -0.07,-0.02,0.01
198,0.93,-0.46,10.71, -0.07,-0.02,0.01
199,0.82,-0.47,10.61, -0.07,-0.01,0.00
200,0.86,-0.39,10.66, -0.07,-0.02,0.01
201,0.91,-0.51,10.69, -0.07,-0.02,0.01
202,1.03,-0.51,10.71, -0.07,-0.02,0.01
203,0.92,-0.44,10.62, -0.07,-0.01,0.01
204,0.90,-0.42,10.60, -0.07,-0.02,0.01
205,0.90,-0.44,10.67, -0.07,-0.02,0.01
206,0.91,-0.42,10.70, -0.07,-0.01,0.01
207,0.86,-0.55,10.71, -0.07,-0.01,0.01
208,0.82,-0.48,10.68, -0.07,-0.02,0.01
209,0.93,-0.44,10.63, -0.07,-0.02,0.01
210,0.94,-0.55,10.70, -0.07,-0.01,0.01
211,0.90,-0.49,10.68, -0.07,-0.02,0.01
212,0.92,-0.50,10.67, -0.07,-0.02,0.01
213,0.95,-0.44,10.67, -0.07,-0.02,0.01
214,0.87,-0.45,10.71, -0.07,-0.02,0.01
215,0.89,-0.44,10.61, -0.07,-0.02,0.00
216,0.87,-0.41,10.69, -0.07,-0.01,0.01
217,0.82,-0.45,10.72, -0.07,-0.02,0.01
218,0.83,-0.51,10.67, -0.07,-0.02,0.01
219,0.90,-0.42,10.73, -0.07,-0.02,0.01
220,0.88,-0.49,10.65, -0.07,-0.01,0.01
221,0.93,-0.46,10.67, -0.07,-0.02,0.01
222,0.91,-0.42,10.58, -0.07,-0.02,0.01
223,0.88,-0.48,10.63, -0.07,-0.02,0.01
224,0.86,-0.52,10.67, -0.07,-0.02,0.01
225,0.83,-0.41,10.71, -0.07,-0.02,0.01
226,0.89,-0.39,10.66, -0.07,-0.02,0.01
227,0.86,-0.46,10.74, -0.07,-0.02,0.01
228,0.96,-0.49,10.72, -0.07,-0.01,0.01
229,0.87,-0.53,10.62, -0.08,-0.01,0.01
230,0.87,-0.46,10.67, -0.07,-0.02,0.01
231,0.86,-0.49,10.69, -0.07,-0.02,0.01
232,0.90,-0.49,10.72, -0.07,-0.02,0.01
233,0.98,-0.41,10.62, -0.07,-0.02,0.00
234,0.84,-0.45,10.69, -0.07,-0.01,0.01
235,0.93,-0.50,10.67, -0.07,-0.02,0.00
236,0.88,-0.44,10.65, -0.07,-0.01,0.01
237,0.84,-0.50,10.69, -0.07,-0.02,0.01
238,0.89,-0.51,10.67, -0.07,-0.02,0.01
239,0.96,-0.40,10.63, -0.07,-0.02,0.01
240,0.90,-0.53,10.67, -0.07,-0.02,0.01
241,0.88,-0.49,10.70, -0.07,-0.02,0.01
242,0.85,-0.47,10.65, -0.07,-0.02,0.01
243,0.86,-0.50,10.65, -0.07,-0.02,0.01
244,0.87,-0.45,10.64, -0.07,-0.02,0.01
245,0.84,-0.49,10.68, -0.07,-0.01,0.01
246,0.89,-0.53,10.69, -0.07,-0.02,0.01
247,0.90,-0.43,10.71, -0.07,-0.02,0.01
248,0.86,-0.57,10.75, -0.07,-0.02,0.01
249,0.90,-0.47,10.68, -0.07,-0.02,0.01
250,0.86,-0.45,10.64, -0.07,-0.02,0.01
251,0.90,-0.46,10.72, -0.07,-0.02,0.01
252,0.93,-0.39,10.76, -0.07,-0.02,0.01
253,0.87,-0.49,10.78, -0.07,-0.02,0.00
254,0.85,-0.61,10.68, -0.07,-0.02,0.01
255,0.96,-0.46,10.66, -0.07,-0.02,0.01
256,0.92,-0.50,10.69, -0.07,-0.01,0.01
257,0.92,-0.42,10.69, -0.07,-0.01,0.00
258,0.96,-0.24,10.76, -0.07,-0.02,0.01
259,0.88,-0.52,10.75, -0.07,-0.02,0.01
260,0.97,-0.42,10.71, -0.08,-0.02,0.00
261,0.94,-0.48,10.66, -0.07,-0.02,0.01
262,0.84,-0.60,10.68, -0.07,-0.02,0.01
263,0.91,-0.31,10.75, -0.07,-0.02,0.01
264,0.90,-0.42,10.65, -0.07,-0.02,0.01
265,0.85,-0.50,10.63, -0.07,-0.01,0.01
266,0.96,-0.48,10.71, -0.08,-0.02,0.01
267,0.98,-0.53,10.68, -0.07,-0.01,0.01
268,0.80,-0.41,10.72, -0.07,-0.01,0.01
269,0.84,-0.39,10.75, -0.07,-0.02,0.01
270,0.94,-0.51,10.67, -0.07,-0.02,0.01
271,0.91,-0.46,10.71, -0.07,-0.02,0.01
272,0.90,-0.45,10.67, -0.07,-0.02,0.01
273,0.87,-0.55,10.67, -0.07,-0.02,0.01
274,0.95,-0.43,10.71, -0.07,-0.02,0.01
275,0.92,-0.49,10.70, -0.07,-0.01,0.01
276,0.89,-0.45,10.63, -0.07,-0.01,0.01
277,0.91,-0.38,10.67, -0.07,-0.02,0.01
278,0.93,-0.49,10.69, -0.07,-0.02,0.01
279,0.90,-0.55,10.69, -0.07,-0.02,0.01
280,0.92,-0.44,10.69, -0.07,-0.01,0.01
281,0.88,-0.49,10.70, -0.07,-0.01,0.01
282,0.85,-0.43,10.63, -0.07,-0.02,0.01
283,0.91,-0.52,10.75, -0.07,-0.02,0.01
284,0.90,-0.50,10.58, -0.07,-0.02,0.01
285,0.87,-0.40,10.69, -0.07,-0.02,0.01
286,0.89,-0.47,10.68, -0.07,-0.02,0.01
287,0.91,-0.48,10.73, -0.07,-0.02,0.01
288,0.88,-0.40,10.63, -0.07,-0.02,0.01
289,0.84,-0.38,10.66, -0.07,-0.01,0.01
290,0.83,-0.43,10.75, -0.07,-0.02,0.00
291,0.93,-0.50,10.69, -0.07,-0.02,0.01
292,0.95,-0.50,10.68, -0.07,-0.02,0.01
293,0.91,-0.48,10.73, -0.07,-0.01,0.01
294,0.80,-0.44,10.62, -0.07,-0.02,0.01
295,0.90,-0.45,10.69, -0.07,-0.02,0.00
296,0.93,-0.40,10.60, -0.07,-0.02,0.01
297,0.88,-0.52,10.70, -0.07,-0.02,0.01
298,0.88,-0.42,10.64, -0.07,-0.02,0.01
299,0.82,-0.48,10.71, -0.07,-0.01,0.01
300,0.90,-0.38,10.69, -0.07,-0.02,0.01
301,0.86,-0.43,10.63, -0.07,-0.02,0.01
302,0.97,-0.44,10.75, -0.07,-0.02,0.01
303,0.99,-0.62,10.65, -0.07,-0.01,0.01
304,0.82,-0.45,10.73, -0.07,-0.01,0.01
305,0.90,-0.41,10.66, -0.07,-0.02,0.01
306,0.85,-0.53,10.64, -0.07,-0.02,0.01
307,0.93,-0.41,10.57, -0.07,-0.02,0.01
308,0.91,-0.50,10.65, -0.07,-0.02,0.01
309,0.94,-0.46,10.71, -0.07,-0.02,0.01
310,0.86,-0.52,10.68, -0.07,-0.01,0.01
311,0.77,-0.44,10.70, -0.07,-0.02,0.01
312,0.87,-0.48,10.66, -0.07,-0.02,0.00
313,0.97,-0.41,10.64, -0.07,-0.02,0.01
314,0.83,-0.51,10.73, -0.07,-0.02,0.01
315,0.86,-0.49,10.65, -0.07,-0.02,0.01
316,1.00,-0.51,10.69, -0.07,-0.02,0.01
317,0.91,-0.50,10.70, -0.07,-0.01,0.01
318,0.76,-0.47,10.70, -0.07,-0.02,0.01
319,0.89,-0.47,10.70, -0.07,-0.03,0.01
320,0.98,-0.55,10.72, -0.07,-0.02,0.00
321,0.88,-0.48,10.64, -0.07,-0.01,0.01
322,0.79,-0.43,10.70, -0.07,-0.02,0.01
323,0.88,-0.49,10.72, -0.07,-0.02,0.01
324,1.03,-0.44,10.68, -0.07,-0.02,0.01
325,0.87,-0.48,10.68, -0.07,-0.01,0.01
326,0.89,-0.45,10.68, -0.07,-0.02,0.01
327,0.92,-0.55,10.66, -0.07,-0.02,0.01
328,0.93,-0.56,10.69, -0.07,-0.01,0.01
329,0.87,-0.50,10.77, -0.07,-0.01,0.01
330,0.87,-0.48,10.68, -0.07,-0.01,0.01
331,0.84,-0.40,10.67, -0.07,-0.02,0.01
332,0.80,-0.45,10.67, -0.07,-0.02,0.01
333,0.89,-0.50,10.67, -0.08,-0.02,0.01
334,0.94,-0.49,10.69, -0.07,-0.02,0.01
335,0.91,-0.49,10.60, -0.07,-0.01,0.01
336,0.89,-0.50,10.66, -0.07,-0.01,0.01
337,0.88,-0.47,10.73, -0.07,-0.02,0.01
338,0.87,-0.47,10.72, -0.07,-0.02,0.01
339,0.93,-0.42,10.71, -0.07,-0.02,0.01
340,0.92,-0.45,10.68, -0.07,-0.02,0.01
341,0.88,-0.47,10.68, -0.07,-0.01,0.01
342,0.89,-0.46,10.66, -0.07,-0.01,0.01
343,0.86,-0.49,10.71, -0.07,-0.02,0.01
344,0.86,-0.47,10.64, -0.07,-0.02,0.01
345,0.94,-0.45,10.72, -0.07,-0.02,0.01
346,0.95,-0.47,10.65, -0.07,-0.02,0.01
347,0.94,-0.45,10.65, -0.07,-0.02,0.01
348,0.82,-0.43,10.62, -0.07,-0.01,0.01
349,0.83,-0.46,10.68, -0.07,-0.02,0.01
350,0.89,-0.41,10.67, -0.08,-0.02,0.01
351,0.91,-0.50,10.68, -0.07,-0.02,0.01
352,0.95,-0.47,10.72, -0.07,-0.02,0.01
353,0.94,-0.47,10.69, -0.07,-0.01,0.01
354,0.86,-0.50,10.70, -0.07,-0.01,0.01
355,0.88,-0.41,10.71, -0.07,-0.02,0.01
356,0.89,-0.45,10.66, -0.07,-0.02,0.01
357,0.95,-0.48,10.60, -0.07,-0.02,0.01
358,0.99,-0.48,10.78, -0.07,-0.02,0.01
359,0.97,-0.46,10.69, -0.07,-0.01,0.01
360,0.71,-0.40,10.75, -0.07,-0.01,0.01
361,0.90,-0.45,10.65, -0.07,-0.02,0.01
362,0.99,-0.43,10.61, -0.07,-0.02,0.01
363,0.98,-0.50,10.69, -0.07,-0.01,0.01
364,0.80,-0.48,10.79, -0.07,-0.01,0.01
365,0.75,-0.52,10.75, -0.07,-0.02,0.01
366,0.86,-0.45,10.76, -0.07,-0.02,0.00
367,0.93,-0.35,10.67, -0.07,-0.02,0.01
368,0.96,-0.49,10.68, -0.07,-0.02,0.01
369,0.97,-0.47,10.67, -0.07,-0.02,0.01
370,0.93,-0.48,10.67, -0.07,-0.01,0.01
371,0.86,-0.45,10.69, -0.07,-0.01,0.01
372,0.73,-0.45,10.66, -0.07,-0.01,0.01
373,0.83,-0.41,10.68, -0.07,-0.02,0.01
374,1.06,-0.44,10.64, -0.07,-0.02,0.01
375,0.99,-0.51,10.71, -0.07,-0.01,0.01
376,0.89,-0.53,10.69, -0.07,-0.01,0.01
377,0.75,-0.39,10.75, -0.07,-0.01,0.00
378,0.78,-0.44,10.79, -0.07,-0.02,0.01
379,0.96,-0.58,10.74, -0.07,-0.03,0.01
380,0.98,-0.47,10.70, -0.07,-0.02,0.00
381,0.89,-0.53,10.66, -0.07,-0.00,0.01
382,0.75,-0.47,10.64, -0.07,-0.02,0.01
383,0.86,-0.46,10.67, -0.07,-0.02,0.01
384,0.96,-0.53,10.68, -0.07,-0.02,0.01
385,0.86,-0.45,10.76, -0.07,-0.01,0.01
386,0.92,-0.45,10.66, -0.07,-0.02,0.01
387,0.81,-0.47,10.66, -0.07,-0.01,0.01
388,0.79,-0.53,10.57, -0.07,-0.02,0.01
389,0.84,-0.39,10.67, -0.07,-0.03,0.01
390,0.98,-0.54,10.71, -0.07,-0.02,0.01
391,1.01,-0.45,10.70, -0.07,-0.01,0.01
392,0.85,-0.42,10.70, -0.07,-0.01,0.01
393,0.80,-0.50,10.71, -0.07,-0.02,0.01
394,0.93,-0.53,10.72, -0.07,-0.02,0.01
395,0.67,-0.13,10.62, -0.09,-0.01,0.01
396,0.68,-0.67,10.72, -0.08,-0.05,-0.00
397,1.60,-0.54,10.68, -0.07,-0.02,0.00
398,1.10,-0.71,10.66, -0.05,0.03,0.01
399,0.24,-0.87,10.64, -0.07,0.01,-0.01
400,0.89,0.37,10.71, -0.08,-0.10,0.03
401,1.49,-1.10,10.44, -0.02,0.05,0.11
402,3.24,0.95,11.03, -0.06,0.11,-0.04
403,0.77,-1.16,10.86, -0.05,0.14,-0.00
404,0.66,0.26,10.45, -0.05,0.13,-0.10
405,0.60,-0.83,10.67, -0.11,0.04,-0.49
406,0.74,-0.75,11.12, -0.03,0.21,-0.34
407,1.22,-0.76,10.65, -0.04,0.32,-0.34
408,0.15,1.02,12.17, -0.09,0.34,-0.50
409,1.30,-0.57,14.01, -0.10,0.44,-0.67
410,0.76,-0.12,14.52, -0.04,0.59,-0.75
411,0.92,-0.04,14.27, -0.13,0.61,-0.77
412,0.96,0.45,13.69, -0.30,0.76,-0.65
413,0.60,1.00,13.25, -0.63,0.85,-0.80
414,-0.61,0.20,12.98, -0.82,0.86,-0.90
415,-1.08,-0.93,13.22, -0.73,0.73,-0.80
416,-1.40,-0.64,13.86, -0.50,0.52,-0.65
417,-0.86,-0.30,13.76, -0.28,0.42,-0.52
418,-1.31,0.56,12.89, -0.11,0.08,-0.31
419,0.14,0.25,11.89, -0.39,0.17,-0.41
420,-0.75,-0.84,12.07, -0.40,0.28,-0.52
421,-0.07,0.56,12.05, -0.35,0.43,-0.23
422,-1.93,-0.58,12.75, -0.34,0.43,-0.14
423,-2.12,-0.39,12.75, -0.18,0.22,0.04
424,-1.98,-1.11,11.75, 0.05,0.02,0.08
425,-1.34,-0.04,10.54, 0.23,-0.11,-0.11
426,-0.98,-0.14,10.16, 0.38,-0.14,0.09
427,-0.06,0.22,9.93, 0.41,-0.14,0.21
428,-1.10,0.79,10.09, 0.37,-0.14,0.38
429,-1.40,0.85,10.59, 0.22,-0.30,0.34
430,-1.33,0.03,10.67, 0.20,-0.48,0.30
431,-0.78,0.46,10.30, 0.30,-0.58,0.24
432,0.06,0.52,9.80, 0.42,-0.53,0.15
433,0.19,0.82,9.74, 0.54,-0.42,0.08
434,0.65,1.68,9.85, 0.59,-0.29,0.15
435,0.36,1.80,9.47, 0.56,-0.16,0.19
436,0.43,2.32,9.11, 0.39,-0.00,0.07
437,0.00,2.35,8.70, 0.21,0.06,-0.06
438,0.14,1.34,8.26, 0.09,0.05,-0.31
439,-0.91,-0.98,8.49, 0.30,-0.10,-0.16
440,-0.75,-0.05,9.03, 0.58,-0.27,-0.05
441,-0.23,1.82,8.84, 0.57,-0.40,-0.06
442,0.74,3.19,8.76, 0.35,-0.39,-0.35
443,0.44,1.57,8.72, 0.15,-0.39,-0.64
444,-0.30,-0.19,9.23, 0.31,-0.46,-0.42
445,0.34,1.40,9.11, 0.34,-0.50,-0.31
446,1.01,1.81,8.91, 0.15,-0.35,-0.40
447,0.67,1.77,9.36, -0.03,-0.23,-0.60
448,0.65,0.77,9.64, -0.13,-0.17,-0.71
449,1.47,1.20,9.47, -0.25,0.03,-0.46
450,0.96,0.42,9.64, -0.37,0.20,-0.57
451,0.45,0.48,9.67, -0.45,0.27,-0.76
452,0.22,-0.37,9.78, -0.42,0.22,-0.80
453,-0.11,-0.37,10.24, -0.32,0.14,-0.76
454,1.07,0.23,10.12, -0.35,0.16,-0.60
455,0.55,-0.25,9.59, -0.42,0.29,-0.62
456,0.48,-1.06,9.47, -0.35,0.39,-0.74
457,0.23,-0.59,9.56, -0.24,0.40,-0.94
458,-0.58,-1.04,9.76, -0.05,0.31,-0.82
459,-0.54,-0.72,9.49, 0.08,0.18,-0.71
460,-0.62,0.23,9.08, 0.01,0.09,-0.65
461,-0.60,0.61,8.95, -0.17,-0.01,-0.65
462,-0.18,-0.65,9.42, -0.17,-0.11,-0.61
463,-0.41,-1.23,9.92, 0.06,-0.22,-0.52
464,0.11,-0.78,9.95, 0.32,-0.32,-0.36
465,0.31,0.11,9.65, 0.39,-0.31,-0.43
466,-0.98,2.98,6.51, 0.36,-0.26,-0.35
467,1.18,0.64,8.44, 0.02,-0.25,-0.66
468,-0.91,-1.41,10.47, 0.12,-0.39,-0.45
469,0.36,-1.77,10.94, 0.43,-0.55,-0.22
470,0.96,0.36,11.01, 0.53,-0.48,-0.20
471,1.37,0.49,10.69, 0.51,-0.39,-0.25
472,1.31,1.53,10.52, 0.44,-0.27,-0.31
473,2.51,0.32,10.31, 0.34,-0.11,-0.44
474,0.52,0.47,10.28, 0.33,-0.03,-0.56
475,0.99,0.54,11.15, 0.27,-0.04,-0.43
476,0.45,1.02,10.68, 0.15,-0.13,-0.43
477,1.46,2.06,10.25, 0.01,-0.07,-0.51
478,1.30,0.49,10.42, -0.15,0.06,-0.63
479,1.52,0.90,10.00, -0.16,0.14,-0.48
480,1.55,0.44,9.63, -0.24,0.30,-0.44
481,0.66,-0.76,9.98, -0.15,0.38,-0.41
482,0.25,-0.49,10.04, -0.03,0.30,-0.27
483,0.62,0.44,10.12, 0.00,0.26,-0.27
484,0.84,0.33,9.68, -0.01,0.26,-0.35
485,0.27,0.12,9.77, -0.01,0.16,-0.39
486,-0.20,-0.29,10.33, 0.06,-0.02,-0.26
487,0.43,0.18,10.59, 0.13,-0.20,-0.20
488,0.91,0.36,10.84, 0.16,-0.26,-0.21
489,0.91,0.30,11.49, 0.20,-0.28,-0.21
490,0.31,0.98,11.21, 0.16,-0.33,-0.23
491,1.11,0.88,10.63, 0.04,-0.33,-0.24
492,0.44,0.80,10.80, -0.08,-0.33,-0.23
493,1.13,0.47,11.54, -0.06,-0.36,-0.18
494,1.01,0.72,12.21, 0.07,-0.41,-0.18
495,1.17,0.84,12.50, 0.21,-0.40,-0.29
496,1.11,1.28,12.26, 0.29,-0.42,-0.34
497,1.36,2.01,11.31, 0.15,-0.34,-0.42
498,1.37,1.18,11.06, -0.09,-0.19,-0.42
499,1.17,0.36,11.13, -0.21,-0.04,-0.38
500,1.08,0.84,11.46, -0.29,0.07,-0.33
501,0.94,0.47,11.34, -0.29,0.13,-0.32
502,0.80,0.76,11.47, -0.24,0.12,-0.31
503,1.10,1.00,11.57, -0.23,0.13,-0.37
504,1.26,0.28,11.45, -0.24,0.16,-0.42
505,1.07,0.43,11.21, -0.26,0.22,-0.35
506,0.51,0.37,11.19, -0.27,0.22,-0.31
507,0.37,0.36,11.17, -0.25,0.19,-0.25
508,0.21,0.22,10.96, -0.23,0.12,-0.21
509,0.56,0.23,11.24, -0.18,0.04,-0.15
510,0.59,0.51,11.80, -0.10,-0.03,-0.17
511,0.44,0.51,11.71, -0.02,-0.07,-0.20
512,0.12,0.28,11.89, 0.13,-0.17,-0.14
513,0.86,0.61,11.61, 0.22,-0.19,-0.15
514,0.49,0.73,11.54, 0.23,-0.18,-0.16
515,0.51,0.82,11.50, 0.22,-0.15,-0.12
516,0.73,1.35,11.67, 0.18,-0.10,-0.15
517,0.88,1.13,11.73, 0.19,-0.04,-0.17
518,0.97,1.25,11.53, 0.21,0.00,-0.20
519,0.82,0.80,11.16, 0.19,0.06,-0.15
520,0.66,0.71,10.63, 0.12,0.06,-0.10
521,0.69,0.78,10.58, 0.07,0.06,-0.06
522,1.02,1.16,10.74, -0.00,0.05,-0.04
523,1.39,1.48,10.93, -0.09,0.09,-0.14
524,1.11,1.19,10.87, -0.14,0.10,-0.18
525,1.03,1.19,10.75, -0.17,0.10,-0.19
526,1.66,0.94,10.57, -0.14,0.14,-0.15
527,1.10,1.27,10.86, -0.16,0.24,-0.22
528,0.92,1.11,10.62, -0.23,0.28,-0.23
529,0.83,1.13,10.29, -0.31,0.28,-0.24
530,0.22,0.39,10.47, -0.27,0.18,-0.16
531,0.39,0.83,10.36, -0.21,0.07,-0.09
532,0.32,0.81,10.45, -0.16,0.02,-0.04
533,0.38,1.24,10.11, -0.17,0.03,-0.01
534,0.48,0.77,9.93, -0.15,0.04,0.02
535,0.18,0.95,10.31, -0.09,-0.01,0.14
536,0.63,1.37,10.67, -0.08,-0.06,0.09
537,0.29,1.04,10.72, -0.06,-0.09,0.03
538,0.11,0.74,10.75, 0.05,-0.15,0.06
539,0.28,1.17,10.70, 0.12,-0.21,0.08
540,0.20,1.45,10.85, 0.09,-0.21,0.08
541,0.39,1.78,11.01, 0.02,-0.19,0.12
542,0.39,1.33,10.98, -0.10,-0.13,0.07
543,0.20,0.99,10.61, -0.12,-0.09,0.07
544,-0.26,0.19,10.50, -0.03,-0.13,0.12
545,-0.25,0.49,10.58, 0.18,-0.27,0.35
546,0.29,1.93,10.58, 0.18,-0.32,0.42
547,1.04,2.16,10.67, 0.05,-0.19,0.32
548,0.54,1.61,10.46, -0.12,-0.09,0.22
549,0.42,1.50,10.79, -0.19,-0.06,0.17
550,0.49,1.29,11.29, -0.18,-0.10,0.20
551,0.77,1.93,11.37, -0.16,-0.08,0.14
552,0.80,1.27,11.12, -0.11,0.02,0.14
553,0.68,1.72,10.97, -0.05,0.12,0.13
554,0.94,1.83,10.91, -0.04,0.25,0.05
555,0.55,1.42,10.82, 0.01,0.28,0.01
556,0.21,1.71,10.33, 0.05,0.23,0.01
557,0.08,1.40,10.30, 0.04,0.13,0.07
558,0.23,1.75,10.28, -0.04,0.05,0.06
559,0.37,1.96,10.39, -0.16,0.03,0.01
560,0.59,1.31,10.27, -0.22,0.05,-0.04
561,0.10,1.29,10.35, -0.21,0.04,-0.06
562,0.11,0.99,10.48, -0.10,-0.01,0.02
563,0.02,1.44,10.35, -0.06,-0.08,0.04
564,0.29,1.24,10.44, -0.05,-0.09,0.05
565,0.44,1.09,10.53, -0.01,-0.10,0.04
566,0.42,1.12,10.44, 0.05,-0.10,0.05
567,0.32,1.47,10.40, 0.09,-0.10,0.05
568,0.45,1.61,10.61, 0.09,-0.14,0.08
569,0.50,2.59,10.99, -0.02,-0.13,0.04
570,0.62,2.08,10.98, -0.20,-0.02,-0.06
571,0.62,1.60,10.62, -0.23,0.06,-0.11
572,0.33,1.37,10.41, -0.16,0.09,-0.08
573,0.12,1.60,10.53, -0.17,0.10,-0.10
574,0.25,1.29,10.65, -0.18,0.08,-0.09
575,0.16,1.12,10.95, -0.21,0.03,-0.13
576,-0.04,1.09,10.80, -0.19,0.03,-0.12
577,-0.01,0.63,10.59, -0.14,0.02,-0.06
578,-0.18,0.64,10.49, -0.07,0.01,0.06
579,0.25,1.27,10.85, -0.07,-0.01,0.13
580,0.31,1.73,11.18, -0.11,-0.01,0.09
581,0.63,1.42,10.90, -0.07,0.02,0.05
582,0.24,1.17,10.76, 0.04,0.03,0.07
583,0.15,1.45,10.28, 0.11,0.00,0.15
584,0.53,1.96,10.55, -0.00,0.02,0.12
585,0.32,1.97,10.89, -0.14,0.04,0.05
586,0.37,1.82,10.69, -0.24,0.05,-0.01
587,0.15,1.25,10.32, -0.24,0.07,-0.02
588,-0.00,1.05,10.36, -0.15,0.04,0.07
589,0.23,1.14,10.51, -0.09,0.02,0.09
590,0.28,1.38,10.83, -0.06,0.01,0.05
591,0.14,1.35,10.76, -0.02,-0.00,0.02
592,0.33,1.03,10.57, 0.04,-0.01,0.05
593,0.15,1.39,10.67, 0.04,-0.01,0.06
594,0.15,1.65,10.77, -0.01,-0.03,0.09
595,0.43,1.85,10.46, -0.14,0.01,0.04
596,0.59,1.30,10.62, -0.19,0.07,0.01
597,0.21,1.01,10.95, -0.13,0.06,-0.01
598,0.15,1.27,10.77, -0.03,0.03,0.04
599,0.38,1.33,10.45, 0.04,0.03,0.04
600,0.20,1.58,10.71, 0.07,0.04,0.03
601,0.25,1.86,10.55, 0.04,0.02,0.00
602,0.07,1.86,10.39, -0.05,0.01,-0.04
603,-0.00,1.59,10.39, -0.12,-0.02,0.01
604,0.16,1.41,10.65, -0.16,-0.05,0.04
605,0.31,1.71,11.00, -0.16,-0.04,0.03
606,0.37,1.40,11.03, -0.16,0.00,0.02
607,0.31,1.34,10.77, -0.15,0.06,-0.03
608,0.13,1.24,10.62, -0.10,0.08,0.00
609,0.07,1.27,10.63, -0.03,0.05,0.02
610,0.14,1.39,10.76, 0.01,-0.01,0.01
611,-0.09,1.50,11.10, 0.04,-0.03,0.01
612,0.29,1.66,10.82, -0.01,-0.03,-0.01
613,0.41,1.66,10.69, -0.07,0.02,-0.06
614,0.10,1.61,11.06, -0.07,0.07,-0.06
615,0.28,1.51,10.86, -0.10,0.10,-0.07
616,-0.28,1.57,10.51, -0.10,0.11,-0.07
617,-0.24,1.48,10.37, -0.11,0.07,-0.04
618,-0.54,1.91,10.61, -0.15,0.00,-0.01
619,-0.11,1.77,10.69, -0.18,-0.04,0.09
620,-1.54,1.75,10.55, -0.12,-0.10,0.45
621,-1.80,1.25,10.32, 0.16,-0.05,-0.13
622,-1.86,0.25,0.40, -0.03,-0.19,-0.63
623,-1.56,0.62,0.68, -0.00,-0.18,-0.38
624,-0.98,0.43,0.77, 0.00,-0.17,-0.34
625,0.05,0.15,0.89, 0.01,-0.17,-0.34
626,0.44,0.20,0.99, 0.01,-0.16,-0.33
627,0.33,0.24,0.92, 0.01,-0.15,-0.34
628,0.02,0.27,1.01, 0.01,-0.14,-0.36
629,-0.22,0.20,0.99, 0.01,-0.14,-0.37
630,-0.00,0.18,0.96, 0.02,-0.13,-0.38
631,0.01,0.24,0.99, 0.02,-0.12,-0.40
632,0.00,0.20,0.93, 0.03,-0.11,-0.41
633,-0.13,0.24,0.99, 0.03,-0.10,-0.43
634,-0.04,0.20,1.09, 0.03,-0.09,-0.44
635,0.00,0.27,0.96, 0.04,-0.09,-0.47
636,-0.04,0.24,1.00, 0.05,-0.07,-0.50
637,-0.03,0.23,0.93, 0.05,-0.06,-0.53
638,-0.01,0.24,0.99, 0.06,-0.05,-0.57
639,-0.05,0.24,1.01, 0.07,-0.03,-0.60
640,-0.06,0.25,0.98, 0.08,-0.02,-0.64
641,0.00,0.26,1.00, 0.09,-0.01,-0.68
642,-0.03,0.30,1.00, 0.11,0.01,-0.72
643,-0.10,0.29,1.02, 0.13,0.03,-0.77
644,-0.07,0.32,0.99, 0.14,0.05,-0.82
645,0.04,0.29,1.11, 0.16,0.07,-0.88
646,-0.07,0.29,1.08, 0.17,0.10,-0.95
647,-0.09,0.25,1.07, 0.19,0.12,-1.02
648,-0.06,0.32,1.07, 0.22,0.16,-1.11
649,-0.03,0.29,1.19, 0.24,0.20,-1.21
650,-0.05,0.34,1.21, 0.27,0.24,-1.31
651,-0.09,0.34,1.21, 0.30,0.28,-1.41
652,-0.11,0.32,1.13, 0.33,0.33,-1.52
653,-0.14,0.41,1.17, 0.36,0.37,-1.65
654,-0.15,0.34,1.16, 0.39,0.43,-1.78
655,-0.06,0.35,1.23, 0.43,0.49,-1.92
656,-0.12,0.38,1.32, 0.46,0.56,-2.06
657,-0.07,0.47,1.29, 0.48,0.64,-2.21
658,-0.11,0.37,1.32, 0.50,0.74,-2.36
659,-0.27,0.41,1.34, 0.52,0.83,-2.52
660,-0.29,0.44,1.39, 0.52,0.94,-2.68
661,-0.26,0.31,1.35, 0.55,1.05,-2.82
662,-0.38,0.51,1.38, 0.56,1.17,-2.98
663,-0.57,0.40,1.39, 0.54,1.33,-3.17
664,-0.64,0.56,1.46, 0.52,1.45,-3.30
665,-0.89,0.22,1.50, 0.47,1.58,-3.42
666,-0.62,0.74,1.60, 0.46,1.68,-3.53
667,-1.23,0.24,1.61, 0.41,1.81,-3.70
668,-1.30,1.48,1.75, 0.35,1.89,-3.82
669,-1.36,1.38,1.81, 0.13,1.99,-4.02
670,-2.84,-1.12,1.64, 0.04,2.02,-3.98
671,-2.24,0.88,1.51, 0.04,2.03,-3.91
672,-2.18,0.53,1.51, -0.10,2.06,-3.98
673,-3.02,-1.80,1.51, -0.04,2.01,-3.60
674,-2.83,0.33,1.62, -0.02,2.03,-3.53
675,-2.98,-1.73,1.47, -0.10,2.02,-3.34
676,-3.29,0.88,1.56, -0.01,1.96,-2.77
677,-3.70,0.51,1.63, -0.21,1.92,-2.79
678,-3.29,-1.64,1.54, -0.25,1.85,-2.36
679,-3.49,0.19,1.64, -0.30,1.77,-2.03
680,-2.48,-1.61,1.57, -0.29,1.72,-1.51
681,-3.66,-0.11,1.60, -0.19,1.68,-1.03
682,-4.01,-1.09,1.58, -0.20,1.58,-0.65
683,-4.01,-0.74,1.63, -0.14,1.50,-0.27
684,-4.45,-0.97,1.50, -0.13,1.39,0.18
685,-4.60,-0.36,1.51, -0.12,1.25,0.60
686,-4.36,-0.58,1.55, -0.10,1.09,1.15
687,-4.42,-0.77,1.43, -0.03,0.99,1.60
688,-4.88,-0.99,1.49, 0.06,0.88,2.07
689,-5.06,-0.68,1.50, 0.21,0.70,2.72
690,-5.24,-0.33,1.52, 0.22,0.54,3.16
691,-5.12,-0.44,1.47, 0.25,0.40,3.58
692,-5.39,0.14,1.35, 0.33,0.23,3.85
693,-5.55,0.61,1.25, 0.38,0.07,3.97
694,-5.45,1.26,1.35, 0.39,-0.09,4.09
695,-4.65,2.28,1.58, 0.26,-0.20,4.10
696,-5.04,1.37,1.59, 0.15,-0.29,4.03
697,-5.51,1.81,1.39, 0.17,-0.40,3.96
