Step,AccX,AccY,AccZ,GyrX,GyrY,GyrZ
0,3.14,0.47,10.55, -0.15,0.25,0.18
1,2.30,-0.91,10.67, -0.32,0.41,0.02
2,0.48,-1.61,10.61, -0.09,0.24,0.22
3,0.19,-1.04,10.35, 0.10,0.10,0.06
4,2.94,3.59,10.19, -0.21,0.08,0.07
5,1.45,-1.20,10.30, -0.26,0.16,0.19
6,1.11,-0.46,10.69, -0.20,0.20,0.19
7,0.99,1.37,10.73, -0.36,0.10,0.40
8,-0.11,-2.54,11.47, -0.44,0.09,0.08
9,3.01,-3.50,10.43, -0.05,0.16,-0.14
10,-0.16,0.62,10.64, 0.14,0.11,-0.63
11,1.28,-0.11,10.46, 0.02,0.07,-1.04
12,1.14,0.18,10.74, -0.09,0.00,-0.61
13,1.11,0.12,10.73, -0.19,-0.08,-0.08
14,1.67,-0.42,10.63, -0.23,-0.09,0.12
15,1.83,-0.41,10.63, -0.18,-0.00,-0.10
16,1.65,-0.45,10.70, -0.17,0.05,-0.39
17,1.48,-0.50,10.70, -0.14,0.07,-0.53
18,1.41,-0.68,10.59, -0.13,0.06,-0.49
19,1.46,-0.72,10.62, -0.10,0.05,-0.38
20,1.35,-0.61,10.65, -0.06,0.05,-0.33
21,1.38,-0.13,10.67, -0.05,0.05,-0.15
22,0.98,-0.13,10.67, -0.13,-0.00,-0.02
23,0.93,-0.28,10.67, -0.16,-0.07,0.15
24,1.06,-0.74,10.64, -0.14,-0.13,0.30
25,1.44,-0.67,10.58, -0.08,-0.11,-0.02
26,1.17,-0.98,10.63, 0.05,-0.09,-0.13
27,0.16,-0.35,10.63, 0.07,-0.25,-0.62
28,1.64,0.52,11.64, 0.04,-0.46,-0.63
29,0.69,0.28,10.69, 0.11,-0.58,-0.04
30,2.16,-0.55,10.90, 0.08,-0.62,-0.05
31,2.93,-0.48,10.42, 0.17,-0.54,-0.15
32,2.97,0.00,10.88, 0.20,-0.35,-0.08
33,1.97,0.77,10.50, 0.12,-0.29,0.02
34,2.56,-0.10,11.00, 0.05,-0.44,0.14
35,3.89,-0.60,10.55, 0.11,-0.20,-0.01
36,2.21,0.43,10.11, 0.12,-0.04,-0.08
37,1.02,0.71,10.59, 0.04,-0.05,-0.04
38,2.41,0.33,10.55, -0.02,-0.12,-0.01
39,2.73,0.12,10.52, -0.02,-0.06,-0.01
40,3.00,0.46,9.90, -0.02,0.00,-0.06
41,2.40,0.50,10.52, -0.05,0.09,-0.02
42,1.88,0.51,10.57, -0.12,0.08,0.00
43,1.76,0.29,10.61, -0.17,-0.02,0.01
44,2.21,-0.17,10.58, -0.15,-0.04,0.02
45,2.13,0.04,10.59, -0.13,-0.03,0.01
46,1.99,0.13,10.49, -0.13,-0.04,0.01
47,2.44,-0.15,10.52, -0.13,-0.03,0.02
48,2.42,-0.11,10.47, -0.10,0.02,0.00
49,2.22,0.11,10.48, -0.10,0.03,-0.01
50,1.99,0.09,10.53, -0.12,0.01,0.00
51,2.25,-0.06,10.55, -0.13,0.00,0.00
52,2.21,-0.08,10.58, -0.11,-0.00,0.01
53,2.34,-0.11,10.59, -0.09,0.02,0.00
54,2.00,-0.32,10.27, -0.08,0.02,-0.05
55,1.13,0.38,10.73, -0.10,-0.01,0.12
56,2.11,-0.37,10.31, -0.08,-0.07,0.16
57,1.86,-0.01,10.63, -0.06,-0.09,0.08
58,2.36,0.08,10.54, -0.09,-0.13,0.04
59,2.20,0.01,10.52, -0.06,-0.09,0.06
60,2.55,-0.21,10.53, -0.07,-0.06,-0.00
61,2.92,-0.36,10.30, -0.02,0.03,-0.05
62,2.02,0.22,10.49, -0.03,0.07,-0.03
63,1.60,0.38,10.50, -0.09,-0.01,0.01
64,2.51,-0.29,10.49, -0.12,-0.02,-0.01
65,2.32,-0.18,10.41, -0.09,0.04,-0.01
66,2.32,0.12,10.78, -0.10,0.05,-0.02
67,2.14,0.00,10.66, -0.12,0.04,0.00
68,2.04,-0.05,10.61, -0.13,0.03,0.01
69,1.86,0.42,10.42, -0.12,-0.01,0.02
70,2.21,-0.13,10.57, -0.14,-0.04,0.01
71,2.09,-0.14,10.48, -0.10,-0.02,0.01
72,1.92,-0.04,10.51, -0.10,-0.06,0.02
73,2.02,-0.19,10.59, -0.10,-0.08,0.04
74,2.22,-0.32,10.55, -0.09,-0.09,0.05
75,2.21,-0.08,10.48, -0.08,-0.07,0.04
76,2.51,-0.22,10.47, -0.09,-0.04,0.01
77,2.22,-0.22,10.52, -0.09,-0.01,-0.00
78,2.16,-0.13,10.55, -0.10,-0.03,-0.00
79,3.66,0.54,10.56, -0.09,-0.03,0.08
80,2.46,-0.59,10.74, -0.06,0.03,-0.02
81,1.93,-0.33,10.45, -0.04,0.01,0.01
82,1.53,-0.09,10.42, -0.08,-0.06,-0.02
83,1.77,-0.09,10.40, -0.08,-0.09,-0.00
84,2.22,-0.31,10.52, -0.05,-0.07,0.00
85,2.68,-0.74,10.48, -0.03,-0.04,-0.06
86,3.08,-0.64,10.36, 0.06,0.13,-0.13
87,2.17,0.03,10.56, 0.08,0.19,-0.14
88,1.64,0.43,10.60, 0.03,0.10,-0.05
89,2.57,-0.06,10.49, 0.00,0.08,-0.04
90,1.78,0.14,10.51, -0.02,0.11,-0.04
91,2.04,-0.01,10.69, -0.08,0.06,-0.04
92,3.04,-0.58,10.45, -0.02,0.18,-0.06
93,1.34,0.38,10.52, -0.03,0.12,-0.05
94,1.81,-0.33,10.28, -0.07,0.04,-0.02
95,2.72,0.21,10.63, -0.09,-0.05,-0.05
96,3.25,-0.14,10.37, -0.06,0.14,-0.18
97,2.94,-1.04,11.05, -0.05,0.35,-0.59
98,-8.52,3.05,10.35, 0.00,0.10,-0.22
99,1.77,-0.11,10.60, -0.13,-0.03,-0.02
100,1.87,0.19,10.76, -0.34,0.02,-0.46
101,1.86,-0.32,10.68, -0.17,0.04,-0.14
102,1.80,0.12,10.70, -0.18,0.05,-0.30
103,2.08,0.37,10.36, -0.12,0.02,-0.26
104,1.69,0.25,10.69, -0.12,-0.03,-0.13
105,1.90,0.10,10.74, -0.17,-0.02,-0.11
106,1.33,-0.52,10.32, -0.20,-0.02,-0.20
107,1.92,-0.59,10.84, -0.23,0.07,-0.60
108,1.84,-0.12,10.48, -0.23,0.08,-0.62
109,2.03,0.21,10.62, -0.28,0.09,-0.42
110,1.71,-0.06,10.69, -0.18,0.06,-0.01
111,1.42,-0.19,10.61, -0.22,0.03,-0.01
112,1.52,0.14,10.67, -0.22,-0.02,-0.24
113,1.84,-0.21,10.52, -0.20,-0.03,-0.19
114,1.82,-0.22,10.71, -0.18,-0.03,-0.02
115,1.36,-0.72,10.42, -0.12,-0.11,-0.17
116,1.91,-0.61,10.66, -0.06,-0.15,-0.21
117,1.19,-0.11,10.49, -0.06,-0.17,-0.16
118,2.22,-1.00,10.70, 0.03,-0.17,0.15
119,1.07,0.03,11.25, 0.29,-0.35,0.71
120,4.36,-2.03,10.22, 0.11,-0.14,-0.30
121,0.99,1.12,10.70, 0.10,-0.02,-0.30
122,2.28,0.89,10.44, -0.01,-0.15,-0.04
123,2.98,-0.29,10.58, -0.01,-0.04,-0.00
124,2.02,-0.85,11.38, -0.02,0.02,0.01
125,2.68,0.60,10.47, -0.08,0.02,0.01
126,4.35,-1.05,10.33, -0.00,0.24,0.14
127,3.82,-0.86,10.37, 0.17,0.63,0.15
128,1.16,0.52,10.83, 0.17,0.69,0.11
129,-2.15,1.92,10.97, 0.07,0.38,-0.04
130,1.59,-0.06,10.64, -0.15,0.11,0.02
131,1.34,-0.53,10.56, -0.09,0.04,0.01
132,1.13,0.06,10.78, -0.09,-0.04,0.01
133,1.70,-0.09,10.63, -0.08,-0.06,0.00
134,1.31,-0.13,10.64, -0.07,-0.07,-0.01
135,1.80,-0.31,10.58, -0.05,-0.07,-0.01
136,2.19,-0.40,10.73, 0.02,-0.01,-0.03
137,1.77,0.06,10.87, 0.03,0.02,-0.01
138,2.12,0.29,10.55, -0.01,0.05,-0.02
139,2.21,0.39,10.79, -0.08,0.13,-0.04
140,0.35,1.02,10.66, -0.14,0.10,-0.08
141,0.93,0.75,10.51, -0.17,0.11,-0.14
142,2.16,-1.23,10.56, -0.19,0.08,-0.13
143,1.95,-0.47,10.39, -0.17,0.08,-0.07
144,1.63,-0.07,10.45, -0.06,0.20,-0.12
145,0.92,0.08,10.61, -0.08,0.14,-0.09
146,0.67,0.61,10.76, -0.14,0.02,0.03
147,-0.12,0.56,10.74, -0.29,-0.27,0.01
148,2.43,-0.64,10.69, -0.28,-0.30,-0.01
149,2.26,-0.81,10.15, -0.12,-0.18,0.17
150,1.44,-0.21,10.51, 0.13,-0.06,0.62
151,2.91,-0.45,10.62, -0.06,0.10,0.01
152,2.50,-4.17,8.28, 0.08,0.19,-0.21
153,-0.39,0.69,10.92, -0.06,0.14,-0.01
154,0.89,-0.59,10.40, -0.23,-0.04,0.03
155,0.27,-2.09,10.22, -0.27,-0.06,0.06
156,2.49,-2.16,10.98, -0.08,-0.09,-0.09
157,4.40,-1.47,16.56, 0.04,0.00,0.04
158,1.95,-0.08,10.69, 0.01,0.02,-0.05
159,2.55,0.26,12.01, 0.04,0.07,0.00
160,1.79,-0.05,10.58, -0.01,0.12,0.03
161,2.03,-0.71,10.68, 0.03,0.13,0.00
162,-2.73,1.59,10.72, 0.01,0.01,-0.25
163,1.68,0.41,11.42, -0.27,-0.56,0.11
164,0.57,-0.42,10.40, -0.33,-0.73,-0.05
165,3.71,-1.67,11.08, 0.39,-0.32,1.34
166,3.25,-3.18,7.41, 0.52,0.49,0.07
167,4.97,-1.07,9.56, 0.06,0.28,-0.07
168,3.35,0.33,10.26, -0.00,0.37,-0.00
169,-3.17,0.30,10.03, -0.25,0.14,-0.21
170,0.92,-1.08,10.16, -0.31,-0.08,-0.07
171,2.55,-0.65,10.98, -0.01,0.26,-0.04
172,0.35,-1.57,9.94, -0.15,-0.01,-0.54
173,1.64,0.24,11.12, -0.05,-0.03,-0.04
174,2.29,1.38,10.99, 0.06,0.13,0.08
175,1.62,0.15,10.76, -0.02,0.05,-0.05
176,-2.89,2.58,10.62, -0.13,-0.10,0.06
177,2.69,-1.18,9.18, -0.34,-0.58,0.08
178,0.38,0.27,10.54, -0.33,-0.54,-0.05
179,3.81,-3.48,9.52, -0.04,-0.41,0.36
180,5.58,-2.03,10.24, 0.29,0.02,0.84
181,5.91,-0.14,10.38, 0.21,0.43,0.12
182,1.20,1.11,10.88, 0.22,0.55,0.02
183,2.87,0.78,10.57, -0.03,0.41,-0.26
184,3.85,1.79,10.38, -0.04,0.29,-0.23
185,2.21,-0.94,10.80, -0.12,0.19,-0.06
186,-0.10,1.28,10.74, 0.00,0.26,-0.32
187,0.78,0.62,10.68, -0.16,0.09,-0.00
188,2.23,-1.11,10.75, -0.12,0.16,-0.18
189,0.18,-0.90,10.37, -0.01,0.25,-0.05
190,-0.08,0.00,10.63, -0.16,0.05,-0.12
191,1.03,-0.99,10.45, -0.19,-0.10,-0.12
192,0.08,-0.22,10.61, -0.06,-0.05,0.02
193,-4.43,0.26,10.12, -0.19,-0.48,0.29
194,-0.82,0.05,10.38, -0.34,-0.81,0.68
195,-1.74,1.67,12.45, -0.55,-1.20,0.63
196,4.73,-2.63,11.54, 0.09,-0.66,0.58
197,5.08,-3.08,6.64, 0.20,0.56,-0.75
198,2.10,-0.83,10.34, 0.22,0.20,0.00
199,2.80,0.61,11.24, 0.25,0.42,-0.07
200,0.28,0.77,10.84, 0.11,0.36,-0.04
201,3.64,2.77,12.34, -0.08,0.25,-0.22
202,-1.35,1.34,10.74, -0.17,-0.03,-0.05
203,0.73,0.09,10.53, -0.25,-0.31,-0.06
204,5.97,-7.39,9.90, 0.04,0.09,-0.52
205,0.43,2.79,10.00, 0.09,0.18,-0.61
206,-0.17,-0.08,10.58, 0.07,0.21,-0.42
207,-2.84,1.95,10.49, -0.30,-0.32,-0.26
208,1.53,-1.27,10.96, -0.37,-0.56,-0.10
209,-1.91,0.34,10.74, -0.42,-1.04,-0.12
210,3.85,-1.19,10.59, -0.12,-0.97,0.15
211,2.77,-0.91,9.71, 0.32,-0.17,1.13
212,4.28,-1.30,10.25, 0.38,0.22,1.24
213,4.14,-2.27,9.84, 0.02,-0.01,0.09
214,4.63,0.34,11.15, 0.11,0.44,0.05
215,1.51,1.16,10.45, 0.09,0.62,0.08
216,-0.24,2.15,10.93, -0.22,0.29,-0.86
217,0.26,-0.08,10.58, -0.10,0.40,-0.17
218,1.76,-1.12,10.86, -0.19,0.26,-0.12
219,-2.07,0.74,11.01, -0.36,-0.19,-0.04
220,7.10,-1.68,11.25, 0.12,0.40,-0.09
221,0.40,2.15,10.81, 0.04,0.14,-0.29
222,-1.11,2.77,10.64, 0.08,0.18,-0.39
223,1.86,-0.05,10.72, -0.06,0.01,0.01
224,-0.14,0.74,10.53, -0.04,0.07,-0.02
225,-1.70,2.17,10.53, -0.30,-0.34,-0.00
226,0.02,0.17,10.87, -0.32,-0.62,0.94
227,2.61,2.20,11.19, -0.42,-0.73,-0.23
228,2.69,-1.15,10.68, -0.07,-0.38,-0.00
229,5.45,-1.79,10.58, 0.24,0.09,0.09
230,4.13,4.02,11.57, 0.40,0.64,-0.04
231,2.90,0.06,10.79, 0.06,0.24,-0.53
232,-1.44,3.09,10.51, -0.01,0.21,-0.55
233,0.12,0.98,10.62, -0.19,0.03,-0.02
234,1.40,-0.01,11.02, -0.23,-0.10,0.10
235,-1.98,1.10,10.79, -0.18,-0.17,-0.03
236,4.16,-2.32,10.51, 0.05,0.09,-0.05
237,-0.94,2.10,10.71, -0.10,-0.11,-0.01
238,1.99,-0.87,10.54, -0.18,-0.28,0.11
239,3.32,-1.05,10.84, 0.01,0.07,-0.03
240,-0.28,1.29,10.69, -0.01,0.06,-0.02
241,2.89,-1.06,10.58, -0.00,0.06,-0.00
242,-0.42,1.54,10.75, -0.17,-0.24,-0.00
243,0.91,-1.49,10.97, -0.23,-0.50,0.04
244,5.11,-2.11,10.85, -0.07,-0.37,0.02
245,4.17,-0.62,10.35, 0.18,0.14,-0.05
246,0.95,1.69,10.55, 0.13,0.38,-0.07
247,1.32,1.49,10.51, 0.00,0.31,-0.45
248,3.21,4.49,11.09, -0.13,0.12,-0.16
249,-0.42,1.00,11.82, -0.24,-0.05,0.05
250,5.23,-4.38,9.94, -0.11,0.14,0.01
251,-0.54,1.01,10.75, -0.09,0.11,-0.01
252,1.43,-0.44,10.59, -0.15,-0.06,0.00
253,1.94,-0.40,10.72, -0.03,0.08,-0.01
254,-0.28,1.36,10.71, -0.12,-0.04,0.01
255,1.92,-0.79,10.75, -0.13,-0.13,0.08
256,1.17,0.45,10.76, -0.06,-0.06,0.13
257,-5.69,2.89,11.43, -0.23,-0.48,0.28
258,6.39,-3.30,10.13, -0.20,-0.55,-0.07
259,3.21,-0.45,10.66, 0.16,0.02,-0.03
260,1.84,0.47,9.82, 0.21,0.31,0.02
261,0.44,1.79,10.64, 0.06,0.28,-0.01
262,-0.32,2.33,10.97, -0.15,-0.06,-0.25
263,-2.11,0.33,9.91, -0.21,-0.10,-0.01
264,2.27,0.55,10.78, -0.07,0.07,-0.01
265,1.88,0.20,11.40, -0.11,0.02,-0.06
266,0.85,0.25,10.89, -0.02,0.08,-0.04
267,1.09,0.13,10.61, -0.03,0.05,-0.13
268,1.51,-0.27,10.57, 0.02,0.10,-0.16
269,-1.51,1.23,10.58, -0.12,-0.14,0.01
270,0.58,-2.69,9.14, -0.26,-0.52,0.59
271,-0.78,0.62,10.96, -0.18,-0.44,-0.01
272,4.03,-0.15,10.76, 0.09,-0.13,0.14
273,0.87,0.66,10.54, 0.01,-0.07,-0.02
274,4.66,-1.13,10.44, 0.06,0.15,-0.02
275,0.69,0.37,10.64, 0.07,0.38,-0.08
276,-15.36,-2.23,7.71, 0.00,-0.05,-1.30
277,0.86,-0.67,10.13, -0.18,0.01,0.06
278,1.66,-0.39,10.75, -0.21,-0.02,-0.02
279,0.78,-0.15,10.65, -0.16,-0.02,-0.05
280,2.34,-2.35,10.81, -0.14,-0.15,-0.02
281,1.16,0.56,10.66, -0.04,0.02,-0.00
282,1.96,-0.12,10.56, -0.05,0.07,0.00
283,1.94,-0.68,10.54, -0.02,0.14,0.01
284,0.94,0.18,10.62, 0.00,0.16,0.01
285,3.97,-1.45,11.04, 0.01,0.22,0.01
286,-0.23,3.77,11.07, -0.06,0.12,-0.00
287,1.36,-0.11,10.44, -0.22,0.02,-0.09
288,1.63,-0.41,11.11, -0.08,0.11,-0.04
289,0.07,0.24,11.14, -0.04,0.11,-0.47
290,2.04,0.29,11.04, -0.12,0.05,-1.47
291,8.58,-4.92,8.27, -0.01,0.30,-0.99
292,-3.32,4.46,13.65, 0.09,0.16,-0.00
293,1.14,-1.61,10.22, 0.12,0.18,0.72
294,0.45,2.34,10.66, 0.18,0.08,1.33
295,1.41,1.66,10.62, -0.14,0.06,0.77
296,0.67,1.44,10.56, -0.26,0.11,0.75
297,-0.50,1.70,10.52, -0.51,-0.04,0.77
298,0.27,-2.47,9.65, -0.18,-0.27,0.21
299,-1.59,-1.73,10.07, 0.08,-0.49,-0.40
300,7.66,-0.87,13.92, 0.12,-0.83,-0.38
301,5.17,4.61,10.67, -0.00,0.43,0.33
302,-2.02,1.51,12.47, -0.47,0.18,-0.21
303,1.05,-2.63,11.42, -0.29,-0.15,-0.24
304,0.54,-2.38,10.61, 0.15,0.05,-0.06
305,-0.22,0.77,10.64, 0.13,-0.26,-0.05
306,2.52,1.43,10.89, -0.09,0.01,-0.01
307,-2.59,1.80,12.80, -0.30,0.08,0.08
308,-2.38,1.85,9.39, -0.58,0.04,-0.07
309,-8.29,-2.12,11.20, -0.27,0.37,-0.35
310,1.81,0.46,11.02, -0.74,-0.27,0.07
311,1.74,-3.45,11.25, -0.15,-0.21,0.41
312,4.00,-1.31,14.84, 0.52,0.82,0.39
313,0.36,0.10,14.33, 0.32,1.19,0.27
314,0.46,0.17,13.34, 0.13,0.88,0.69
315,2.04,0.93,13.57, -0.11,0.43,0.69
316,2.39,4.43,13.60, -0.60,0.23,0.93
317,0.33,6.56,12.52, -1.38,-0.40,1.14
318,4.34,3.72,12.37, -1.55,-0.86,1.01
319,4.95,3.18,13.21, -1.25,-0.92,0.23
320,3.74,2.16,14.19, -0.75,-0.82,-0.49
321,2.30,2.15,14.52, -0.21,-0.64,-0.75
322,2.26,1.48,13.89, 0.27,-0.35,-0.75
323,2.06,1.45,13.56, 0.66,-0.16,-0.69
324,0.79,1.84,12.07, 0.98,-0.21,-0.42
325,1.28,1.41,10.11, 1.18,-0.22,-0.29
326,1.59,2.23,8.93, 1.11,-0.22,-0.21
327,2.98,1.33,8.32, 0.90,-0.16,-0.42
328,2.77,-0.49,8.81, 0.84,-0.24,-0.30
329,0.65,3.10,7.92, 0.53,-0.62,-0.15
330,2.28,0.85,9.19, 0.13,-0.61,0.09
331,3.22,0.75,9.57, -0.09,-0.20,-0.01
332,1.93,-0.14,8.08, -0.00,-0.11,0.03
333,1.49,-0.21,6.93, 0.20,-0.17,0.12
334,0.25,0.72,6.93, 0.10,-0.34,0.21
335,-0.02,0.39,7.56, -0.34,-0.66,0.52
336,0.42,-1.78,7.58, -0.60,-0.90,0.68
337,2.15,-4.73,7.08, -0.32,-0.67,0.51
338,1.64,-4.47,7.69, 0.02,-0.29,0.38
339,1.47,-3.17,8.58, 0.05,0.03,0.22
340,2.49,-4.24,8.96, -0.03,0.30,0.02
341,2.43,-3.52,9.20, 0.05,0.58,-0.25
342,0.75,-2.13,9.64, 0.04,0.65,-0.15
343,-0.41,-0.26,9.95, -0.18,0.54,0.10
344,-0.66,-0.05,10.06, -0.41,0.19,0.29
345,0.88,-1.64,9.65, -0.34,-0.15,0.46
346,2.81,-2.56,8.65, -0.18,0.00,0.46
347,2.62,-2.83,8.94, 0.05,0.71,0.03
348,-0.26,0.00,11.91, -0.09,1.15,-0.07
349,-1.13,0.99,12.51, -0.51,0.85,0.01
350,0.63,-2.43,11.53, -0.38,0.14,0.55
351,2.86,-2.71,10.68, -0.10,0.14,0.26
352,1.12,0.23,12.78, -0.19,0.78,-0.27
353,-3.91,1.79,12.64, -0.29,0.70,-0.22
354,-3.42,-0.36,11.41, 0.03,-0.10,0.19
355,-0.44,-0.96,10.42, 0.15,-0.34,0.59
356,-0.31,-2.13,9.95, -0.24,-0.29,0.67
357,0.96,-2.38,10.20, -0.50,0.04,0.34
358,1.02,-1.30,9.48, -0.78,0.41,0.13
359,0.95,-2.64,8.42, -0.76,0.50,-0.06
360,-3.84,-0.02,7.13, 0.51,0.00,1.99
361,-2.34,5.60,13.11, -0.04,0.16,-0.73
362,0.06,-2.53,11.38, -0.01,-0.02,0.56
363,1.71,1.71,10.59, 0.01,0.05,0.32
364,0.47,-1.75,10.85, 0.06,-0.03,0.38
365,0.77,1.05,10.68, -0.06,0.01,-0.01
366,-2.33,3.54,10.26, -0.13,-0.13,0.41
367,4.28,-2.27,10.72, -0.06,0.10,0.03
368,-0.51,1.53,11.05, -0.07,-0.04,0.10
369,0.77,-1.31,10.87, -0.14,-0.02,-0.05
370,-0.25,0.30,10.57, 0.01,0.04,-0.05
371,2.10,-1.02,10.30, -0.15,0.00,-0.08
372,0.96,-1.09,10.36, 0.10,0.03,-0.00
373,2.13,2.00,10.78, 0.09,0.03,0.06
374,2.64,-2.60,10.64, -0.09,0.04,-0.43
375,4.39,1.39,10.52, 0.20,0.42,0.18
376,-2.60,-1.73,10.69, 0.09,0.13,0.92
377,-1.58,1.02,10.76, -0.13,-0.32,0.76
378,4.51,3.58,10.42, -0.74,-0.11,-0.25
379,3.32,-0.65,10.56, -0.45,-0.06,-0.56
380,1.49,-0.37,10.94, -0.02,0.06,0.18
381,0.34,-0.79,10.61, 0.01,0.01,0.07
382,1.16,-2.76,10.55, -0.03,-0.00,-0.18
383,-1.46,-0.18,11.42, 0.12,0.09,-0.51
384,1.54,-1.08,10.93, -0.16,0.16,-0.43
385,4.45,-4.55,16.06, -0.14,0.91,0.32
386,2.24,-2.03,16.93, 0.40,1.35,-0.41
387,-2.78,-5.47,14.59, 0.60,0.96,-1.16
388,-2.24,1.02,10.55, -0.09,0.26,-1.90
389,0.47,6.99,8.26, -1.48,-0.81,-2.38
390,0.16,2.50,12.20, 0.23,-1.68,0.13
391,4.05,1.02,8.10, -0.27,-1.52,-0.28
392,3.39,0.74,7.83, -0.58,-0.80,-0.50
393,2.61,-0.45,8.50, -0.69,-0.52,-0.60
394,2.30,-1.05,7.93, -0.65,-0.49,-0.57
395,2.20,-0.41,8.20, -0.57,-0.43,-0.58
396,1.75,0.38,8.48, -0.79,-0.37,-0.45
397,1.73,-1.22,9.85, -1.00,-0.35,-0.41
398,2.36,-3.03,10.71, -0.68,-0.28,-0.51
399,3.05,-3.87,10.46, -0.08,-0.11,-0.78
400,2.10,-1.54,10.75, 0.09,-0.30,-0.90
401,1.87,-1.41,9.99, -0.03,-0.58,-0.77
402,2.76,-0.34,9.00, 0.08,-0.28,-0.71
403,3.22,-2.89,9.22, 0.14,0.41,-0.68
404,1.71,0.34,9.19, -0.17,0.35,-0.75
405,1.23,-1.04,8.35, -0.24,0.23,-0.67
406,1.36,-0.90,7.78, -0.21,0.29,-0.79
407,1.38,-0.40,8.69, -0.40,0.42,-0.81
408,1.36,-1.96,10.82, -0.56,0.64,-0.89
409,1.45,-2.91,12.03, -0.27,0.81,-0.79
410,1.05,-2.79,12.39, 0.03,0.93,-0.77
411,-0.84,-2.22,12.91, 0.31,0.64,-0.79
412,-0.68,-1.91,12.24, 0.67,0.33,-0.91
413,-1.11,-0.39,11.51, 0.98,0.21,-0.98
414,-0.51,0.72,11.62, 1.09,0.24,-0.83
415,-1.36,2.37,11.09, 0.85,0.34,-0.50
416,-1.41,4.11,9.39, 0.23,0.12,-0.28
417,-1.20,1.38,8.62, -0.25,0.02,-0.38
418,0.27,0.54,7.84, -0.35,-0.09,-0.25
419,0.90,-0.02,8.51, -0.67,-0.08,-0.47
420,-8.14,-0.83,8.73, -1.70,1.10,-0.02
421,-2.61,-3.78,11.26, -1.56,-0.33,0.06
422,-1.51,-4.54,9.11, -0.82,-0.29,-0.53
423,0.49,-4.64,9.13, -0.17,0.08,-0.25
424,0.67,-1.56,10.56, -0.12,0.08,-0.22
425,0.26,-1.45,10.62, -0.09,0.06,0.01
426,0.60,-1.23,10.11, 0.01,0.02,0.19
427,1.79,-1.07,10.74, -0.01,-0.04,0.06
428,0.21,-0.72,10.81, -0.05,-0.07,-0.19
429,-1.22,-1.20,10.47, -0.06,0.00,-0.25
430,0.89,-0.66,10.72, -0.02,-0.01,-0.05
431,1.01,-0.94,10.90, -0.01,-0.04,-0.12
432,1.41,-0.78,10.74, -0.09,0.10,-0.14
433,1.62,-1.13,10.59, -0.06,0.12,-0.13
434,0.46,-1.26,11.11, -0.08,0.06,-0.12
435,0.08,-1.22,11.33, -0.13,0.02,0.07
436,3.52,0.81,10.45, -0.09,0.05,0.24
437,1.34,-1.42,10.58, -0.15,0.00,0.06
438,-0.04,-1.62,11.00, -0.08,-0.01,0.09
439,0.77,-0.91,10.66, -0.07,-0.01,0.01
440,0.82,-1.02,10.74, -0.07,-0.01,-0.05
441,0.89,-1.16,10.65, -0.10,-0.01,-0.08
442,0.48,-1.28,10.66, -0.08,-0.04,-0.05
443,0.71,-0.99,10.66, -0.04,-0.05,-0.03
444,0.91,-0.73,10.65, -0.03,-0.06,-0.02
445,0.73,-1.40,10.67, -0.02,-0.07,0.05
446,1.06,-0.96,10.68, -0.02,-0.04,0.04
447,0.96,-1.65,10.78, 0.02,-0.02,0.07
448,0.96,-0.91,10.54, 0.03,-0.01,0.11
449,0.83,-0.66,10.75, -0.01,-0.01,0.02
450,0.85,-0.97,10.66, -0.02,-0.04,-0.00
451,0.72,-0.88,10.77, -0.01,-0.04,0.02
452,1.27,-0.82,10.58, -0.04,-0.02,-0.05
453,1.64,-1.13,10.56, -0.04,-0.03,-0.07
454,1.26,-0.83,10.47, -0.05,0.00,-0.09
455,0.82,-1.06,10.77, -0.08,-0.00,-0.15
456,0.48,-1.57,10.91, -0.08,0.03,-0.17
457,0.68,-0.91,10.70, -0.06,0.04,-0.09
458,0.91,-0.75,10.61, -0.09,-0.01,-0.05
459,0.88,-0.80,10.81, -0.09,-0.01,-0.03
460,0.74,-0.81,10.70, -0.10,-0.03,-0.01
461,0.80,-0.93,10.55, -0.11,-0.02,-0.08
462,0.80,-1.06,10.76, -0.10,-0.01,-0.10
463,0.81,-1.27,10.59, -0.09,-0.03,-0.09
464,1.13,-1.17,10.63, -0.06,-0.02,-0.05
465,0.88,-0.71,10.70, -0.06,-0.03,-0.01
466,0.66,-1.00,10.79, -0.09,-0.03,-0.01
467,0.35,-1.07,10.52, -0.15,-0.04,0.12
468,1.62,-1.17,10.57, -0.09,-0.01,0.05
469,0.50,-1.01,10.66, -0.09,-0.03,0.01
470,0.74,-1.15,10.56, -0.11,-0.02,-0.01
471,3.41,-1.16,10.52, -0.11,0.03,0.00
472,0.68,-1.47,10.62, -0.12,-0.03,0.04
473,1.03,-0.03,10.76, -0.06,-0.03,0.08
474,1.21,-0.89,10.52, -0.07,-0.01,0.02
475,1.07,-0.58,10.52, -0.07,-0.02,0.06
476,0.92,-1.51,10.68, -0.09,-0.04,0.02
477,0.58,-0.96,10.67, -0.05,-0.04,0.01
478,1.13,-1.17,10.63, -0.07,-0.06,-0.02
479,1.07,-1.39,10.64, 0.01,-0.06,0.08
480,0.67,-0.99,10.66, 0.01,-0.06,0.05
481,0.98,-0.72,10.59, -0.03,-0.03,0.02
482,2.25,-3.51,9.81, 0.06,0.03,-0.05
483,-1.59,0.73,9.71, 0.05,-0.09,0.22
484,0.30,-0.10,10.56, -0.08,-0.02,-0.03
485,0.88,-0.15,10.41, -0.07,0.01,0.10
486,0.60,-1.44,10.51, -0.06,-0.03,0.20
487,1.19,0.61,10.68, -0.12,-0.03,0.33
488,-1.39,-4.14,9.39, -0.05,0.01,0.16
489,3.00,-2.41,10.72, 0.17,-0.11,0.04
490,0.40,1.88,10.43, -0.01,-0.06,0.32
491,0.51,-2.57,9.51, -0.04,-0.05,0.20
492,1.61,-0.23,11.36, -0.01,-0.01,0.03
493,0.67,-1.17,10.64, 0.02,-0.01,0.07
494,0.29,-1.12,10.69, 0.02,-0.08,0.48
495,1.20,-0.45,10.64, -0.02,-0.06,0.39
496,1.85,-1.11,10.83, -0.04,0.02,0.05
497,1.19,-0.20,10.73, -0.08,-0.03,0.09
498,0.40,-0.74,10.61, -0.18,0.02,0.05
499,1.27,-1.24,10.74, 0.01,-0.01,0.28
500,0.38,-1.31,10.52, 0.03,-0.10,0.09
501,2.31,-0.87,10.39, -0.08,-0.02,0.05
502,0.53,-0.95,10.66, -0.12,0.02,0.03
503,0.46,-1.21,10.58, -0.02,-0.05,-0.03
504,1.50,-0.46,10.74, -0.04,-0.02,0.00
505,0.95,-0.61,10.75, -0.13,0.01,-0.01
506,0.60,-1.65,10.59, -0.05,-0.02,-0.02
507,1.03,-0.47,10.74, -0.03,-0.04,-0.00
508,1.19,-0.44,10.71, -0.11,0.01,-0.01
509,0.70,-1.68,10.65, -0.07,-0.02,-0.01
510,0.87,-0.53,10.72, -0.02,-0.04,-0.01
511,1.36,-0.52,10.70, -0.10,-0.00,-0.01
512,0.59,-1.30,10.54, -0.09,-0.01,-0.01
513,1.00,-1.03,10.71, -0.03,-0.03,-0.00
514,1.27,-0.46,10.69, -0.08,-0.02,-0.01
515,0.73,-1.11,10.73, -0.10,0.00,-0.01
516,0.97,-1.20,10.64, -0.04,-0.03,-0.01
517,1.00,-0.35,10.73, -0.07,-0.02,-0.01
518,0.92,-1.06,10.67, -0.09,0.00,-0.01
519,0.76,-1.28,10.63, -0.05,-0.03,-0.01
520,0.97,-0.55,10.67, -0.06,-0.02,-0.01
521,0.98,-0.98,10.73, -0.09,-0.00,-0.01
522,0.70,-1.20,10.64, -0.05,-0.03,-0.01
523,1.05,-0.58,10.75, -0.05,-0.02,-0.01
524,1.13,-0.87,10.63, -0.09,-0.01,-0.01
525,0.66,-1.21,10.64, -0.06,-0.02,-0.01
526,1.05,-0.77,10.74, -0.05,-0.02,-0.01
527,1.07,-0.79,10.68, -0.09,-0.01,-0.01
528,0.69,-1.18,10.67, -0.07,-0.02,-0.01
529,1.11,-0.69,10.64, -0.05,-0.03,-0.01
530,0.96,-0.71,10.67, -0.09,-0.01,-0.01
531,0.90,-1.23,10.63, -0.07,-0.01,-0.01
532,0.96,-0.80,10.76, -0.05,-0.03,-0.01
533,1.00,-0.64,10.57, -0.08,-0.01,-0.01
534,0.79,-1.19,10.56, -0.07,-0.02,-0.01
535,1.07,-0.84,10.67, -0.05,-0.03,-0.01
536,0.90,-0.75,10.65, -0.08,-0.01,-0.01
537,0.84,-1.20,10.62, -0.07,-0.01,-0.01
538,0.96,-0.89,10.69, -0.06,-0.03,-0.01
539,1.03,-0.63,10.80, -0.08,-0.01,-0.01
540,0.83,-1.00,10.65, -0.08,-0.02,-0.01
541,0.96,-0.97,10.65, -0.06,-0.02,-0.01
542,1.06,-0.76,10.66, -0.08,-0.02,-0.01
543,0.71,-0.93,10.69, -0.07,-0.01,-0.00
544,1.04,-1.00,10.64, -0.06,-0.01,-0.01
545,0.96,-0.66,10.71, -0.08,-0.02,-0.02
546,0.73,-0.96,10.68, -0.08,-0.01,-0.01
547,1.11,-1.05,10.61, -0.06,-0.02,-0.01
548,0.86,-0.84,10.66, -0.07,-0.02,-0.01
549,0.81,-0.88,10.62, -0.07,-0.01,-0.00
550,1.14,-0.91,10.62, -0.07,-0.02,-0.01
551,0.84,-0.75,10.70, -0.08,-0.02,-0.01
552,0.99,-0.99,10.65, -0.07,-0.01,-0.01
553,0.94,-0.89,10.57, -0.07,-0.02,-0.01
554,0.91,-0.75,10.69, -0.06,-0.02,-0.01
555,0.97,-0.99,10.69, -0.07,-0.02,-0.01
556,0.84,-0.94,10.66, -0.06,-0.02,-0.01
557,0.97,-0.83,10.69, -0.07,-0.02,-0.01
558,0.84,-0.93,10.66, -0.07,-0.02,-0.01
559,0.94,-0.82,10.72, -0.06,-0.01,-0.01
560,0.93,-0.91,10.71, -0.07,-0.01,-0.01
561,0.82,-1.00,10.65, -0.07,-0.01,-0.01
562,0.95,-0.83,10.67, -0.06,-0.02,-0.01
563,0.97,-0.84,10.58, -0.07,-0.01,-0.01
564,0.87,-1.01,10.68, -0.07,-0.02,-0.01
565,0.89,-0.86,10.70, -0.06,-0.02,-0.01
566,1.02,-0.95,10.63, -0.08,-0.01,-0.01
567,0.88,-1.01,10.58, -0.07,-0.02,-0.01
568,1.01,-0.85,10.71, -0.06,-0.02,-0.01
569,0.98,-0.78,10.74, -0.08,-0.01,-0.01
570,0.85,-1.01,10.66, -0.07,-0.02,-0.01
571,0.90,-0.89,10.67, -0.06,-0.02,-0.01
572,0.99,-0.91,10.70, -0.08,-0.02,-0.01
573,0.88,-0.99,10.66, -0.07,-0.01,-0.01
574,1.01,-0.87,10.68, -0.06,-0.02,-0.01
575,0.90,-0.86,10.63, -0.07,-0.01,-0.01
576,0.93,-1.02,10.65, -0.07,-0.02,-0.01
577,0.93,-0.89,10.63, -0.06,-0.02,-0.01
578,0.99,-0.82,10.67, -0.07,-0.01,-0.01
579,0.96,-0.93,10.70, -0.07,-0.02,-0.01
580,0.89,-0.96,10.69, -0.07,-0.02,-0.01
581,1.00,-0.83,10.71, -0.07,-0.02,-0.01
582,0.84,-0.93,10.61, -0.07,-0.02,-0.01
583,0.99,-0.90,10.69, -0.06,-0.02,-0.01
584,1.01,-0.82,10.74, -0.07,-0.02,-0.01
585,0.87,-0.97,10.66, -0.07,-0.02,-0.01
586,0.95,-0.90,10.57, -0.07,-0.02,-0.01
587,0.88,-0.87,10.71, -0.07,-0.02,-0.01
588,0.97,-0.89,10.64, -0.07,-0.01,-0.01
589,0.92,-0.91,10.59, -0.07,-0.02,-0.01
590,0.88,-0.89,10.62, -0.07,-0.01,-0.01
591,1.02,-0.90,10.66, -0.07,-0.02,-0.01
592,0.93,-0.82,10.66, -0.07,-0.02,-0.01
593,0.92,-0.87,10.67, -0.07,-0.02,-0.01
594,0.92,-0.93,10.68, -0.07,-0.02,-0.01
595,0.91,-0.94,10.64, -0.07,-0.01,-0.01
596,1.02,-0.92,10.65, -0.07,-0.02,-0.01
597,0.97,-0.81,10.68, -0.07,-0.02,-0.01
598,0.96,-0.82,10.62, -0.07,-0.01,-0.01
599,0.88,-0.98,10.75, -0.07,-0.02,-0.01
600,0.91,-0.93,10.73, -0.07,-0.02,-0.01
601,0.91,-0.91,10.65, -0.07,-0.02,-0.01
602,0.90,-0.87,10.70, -0.07,-0.02,-0.01
603,0.92,-0.90,10.75, -0.07,-0.01,-0.01
604,0.96,-0.91,10.65, -0.07,-0.02,-0.01
605,0.93,-0.95,10.60, -0.07,-0.02,-0.01
606,0.94,-0.89,10.68, -0.07,-0.02,-0.01
607,0.97,-0.85,10.66, -0.07,-0.02,-0.01
608,0.96,-0.92,10.74, -0.07,-0.02,-0.01
609,0.96,-0.91,10.71, -0.07,-0.02,-0.01
610,0.96,-0.91,10.58, -0.07,-0.02,-0.01
611,0.97,-0.89,10.66, -0.07,-0.02,-0.01
612,0.92,-0.92,10.68, -0.07,-0.02,-0.01
613,0.97,-0.85,10.64, -0.07,-0.02,-0.01
614,0.96,-0.92,10.70, -0.07,-0.02,-0.01
615,0.90,-0.91,10.65, -0.07,-0.02,-0.01
616,0.92,-0.88,10.65, -0.07,-0.02,-0.01
617,0.95,-0.86,10.66, -0.07,-0.02,-0.01
618,0.91,-0.92,10.64, -0.07,-0.02,-0.01
619,0.91,-0.89,10.74, -0.07,-0.02,-0.01
620,0.97,-0.89,10.69, -0.07,-0.02,-0.01
621,0.84,-0.89,10.68, -0.07,-0.02,-0.01
622,0.94,-0.95,10.67, -0.07,-0.02,-0.01
623,0.93,-0.89,10.73, -0.07,-0.02,-0.01
624,0.88,-0.92,10.72, -0.07,-0.02,-0.01
625,0.95,-0.87,10.69, -0.07,-0.02,-0.01
626,0.85,-0.89,10.67, -0.07,-0.02,-0.01
627,0.95,-0.95,10.73, -0.07,-0.02,-0.01
628,0.94,-0.90,10.73, -0.07,-0.02,-0.01
629,0.97,-0.91,10.67, -0.07,-0.02,-0.01
630,0.93,-0.89,10.65, -0.07,-0.01,-0.01
631,0.91,-0.87,10.64, -0.07,-0.02,-0.01
632,1.01,-0.92,10.61, -0.07,-0.02,-0.01
633,0.93,-0.88,10.78, -0.07,-0.02,-0.01
634,0.94,-0.90,10.66, -0.07,-0.02,-0.01
635,0.92,-0.90,10.64, -0.07,-0.02,-0.01
636,0.91,-0.91,10.69, -0.07,-0.02,-0.01
637,0.90,-0.86,10.68, -0.07,-0.02,-0.01
638,0.99,-0.88,10.61, -0.07,-0.01,-0.01
639,0.88,-0.86,10.64, -0.07,-0.02,-0.01
640,0.90,-0.91,10.67, -0.07,-0.02,-0.01
641,0.90,-0.94,10.64, -0.07,-0.02,-0.01
642,0.93,-0.91,10.77, -0.07,-0.02,-0.01
643,0.95,-0.87,10.65, -0.07,-0.02,-0.01
644,0.94,-0.96,10.73, -0.07,-0.02,-0.01
645,0.96,-0.88,10.60, -0.07,-0.02,-0.01
646,0.91,-0.83,10.64, -0.07,-0.02,-0.01
647,0.91,-0.86,10.61, -0.07,-0.01,-0.01
648,0.92,-0.89,10.67, -0.07,-0.02,-0.01
649,0.95,-0.92,10.66, -0.07,-0.02,-0.01
650,0.92,-0.92,10.77, -0.07,-0.02,-0.01
651,0.92,-0.83,10.73, -0.07,-0.01,-0.01
652,1.00,-0.89,10.68, -0.07,-0.02,-0.01
653,0.91,-0.88,10.66, -0.07,-0.02,-0.01
654,0.96,-0.93,10.72, -0.07,-0.02,-0.01
655,0.94,-0.87,10.64, -0.07,-0.02,-0.01
656,0.92,-0.94,10.70, -0.07,-0.02,-0.01
657,0.92,-0.93,10.66, -0.07,-0.01,-0.01
658,0.91,-0.93,10.66, -0.07,-0.02,-0.01
659,0.93,-0.84,10.58, -0.07,-0.02,-0.01
660,0.95,-0.93,10.68, -0.07,-0.01,-0.01
661,0.93,-0.87,10.67, -0.07,-0.02,-0.01
662,0.91,-0.85,10.70, -0.07,-0.02,-0.01
663,0.96,-0.89,10.71, -0.07,-0.01,-0.01
664,0.88,-0.87,10.75, -0.07,-0.01,-0.01
665,0.94,-0.96,10.68, -0.07,-0.02,-0.01
666,0.93,-0.93,10.60, -0.06,-0.02,-0.01
667,0.95,-0.88,10.64, -0.07,-0.02,-0.01
668,0.91,-0.80,10.70, -0.07,-0.01,-0.01
669,0.91,-0.91,10.69, -0.07,-0.02,-0.01
670,0.95,-0.93,10.65, -0.07,-0.02,-0.01
671,0.95,-0.91,10.65, -0.07,-0.02,-0.01
672,0.96,-0.92,10.64, -0.07,-0.02,-0.01
673,0.89,-0.89,10.73, -0.07,-0.02,-0.01
674,0.93,-0.86,10.63, -0.07,-0.02,-0.01
675,0.91,-0.85,10.64, -0.07,-0.02,-0.01
676,0.84,-0.97,10.66, -0.07,-0.02,-0.01
677,0.94,-0.93,10.60, -0.07,-0.02,-0.01
678,0.92,-0.85,10.63, -0.07,-0.02,-0.01
679,0.96,-0.88,10.70, -0.07,-0.02,-0.01
680,0.96,-0.87,10.74, -0.07,-0.02,-0.01
681,0.90,-0.93,10.67, -0.07,-0.02,-0.01
682,0.91,-0.87,10.69, -0.07,-0.02,-0.01
683,0.92,-0.87,10.64, -0.07,-0.02,-0.01
684,0.96,-0.89,10.57, -0.07,-0.02,-0.01
685,0.90,-0.87,10.74, -0.07,-0.02,-0.01
686,0.94,-0.86,10.74, -0.07,-0.02,-0.01
687,0.93,-0.87,10.63, -0.07,-0.02,-0.01
688,0.97,-0.87,10.65, -0.07,-0.02,-0.01
689,0.98,-0.88,10.67, -0.07,-0.02,-0.01
690,0.93,-0.93,10.70, -0.07,-0.02,-0.01
691,0.93,-0.94,10.70, -0.07,-0.02,-0.01
692,0.97,-0.89,10.69, -0.07,-0.02,-0.01
693,0.89,-0.85,10.74, -0.07,-0.01,-0.01
694,0.95,-0.91,10.64, -0.07,-0.01,-0.01
695,0.91,-0.83,10.72, -0.07,-0.02,-0.01
696,0.87,-0.90,10.64, -0.07,-0.02,-0.01
697,0.92,-0.88,10.64, -0.07,-0.02,-0.01
698,0.94,-0.88,10.71, -0.07,-0.02,-0.01
699,0.91,-0.94,10.66, -0.07,-0.02,-0.01
700,0.90,-0.95,10.70, -0.07,-0.02,-0.01
701,0.93,-0.89,10.66, -0.07,-0.02,-0.01
702,0.99,-0.85,10.68, -0.07,-0.02,-0.01
703,0.91,-0.80,10.80, -0.07,-0.02,-0.01
704,0.90,-0.88,10.71, -0.07,-0.02,-0.01
705,0.92,-0.89,10.62, -0.07,-0.02,-0.01
706,0.92,-0.92,10.63, -0.07,-0.02,-0.01
707,0.96,-0.93,10.71, -0.07,-0.02,-0.01
708,0.96,-0.82,10.69, -0.07,-0.02,-0.01
709,0.93,-0.89,10.70, -0.07,-0.02,-0.01
710,0.93,-0.98,10.68, -0.07,-0.01,-0.01
711,0.92,-0.90,10.62, -0.07,-0.02,-0.01
712,1.00,-0.89,10.69, -0.07,-0.02,-0.01
713,0.94,-0.92,10.62, -0.07,-0.02,-0.01
714,0.92,-0.90,10.73, -0.07,-0.01,-0.01
715,0.92,-0.93,10.59, -0.07,-0.02,-0.01
716,0.91,-0.88,10.69, -0.07,-0.02,-0.01
717,0.92,-0.84,10.62, -0.07,-0.02,-0.01
718,0.79,-0.89,10.70, -0.07,-0.02,-0.01
719,1.02,-0.88,10.64, -0.07,-0.01,-0.01
720,1.05,-0.87,10.64, -0.07,-0.02,-0.01
721,0.95,-0.92,10.68, -0.07,-0.02,-0.01
722,0.87,-0.91,10.70, -0.07,-0.02,-0.01
723,0.97,-0.91,10.74, -0.07,-0.02,-0.01
724,0.94,-0.89,10.63, -0.07,-0.02,-0.01
725,0.88,-0.87,10.66, -0.07,-0.02,-0.01
726,0.93,-0.90,10.67, -0.07,-0.02,-0.01
727,0.96,-0.92,10.72, -0.07,-0.02,-0.01
728,0.90,-0.91,10.58, -0.07,-0.02,-0.01
729,0.93,-0.89,10.67, -0.07,-0.02,-0.01
730,0.95,-0.90,10.66, -0.07,-0.02,-0.01
731,0.95,-0.91,10.70, -0.07,-0.02,-0.01
732,0.92,-0.87,10.69, -0.07,-0.02,-0.01
733,0.92,-0.86,10.68, -0.07,-0.02,-0.01
734,0.94,-0.95,10.74, -0.07,-0.02,-0.01
735,0.95,-0.92,10.70, -0.07,-0.01,-0.01
736,0.92,-0.88,10.67, -0.07,-0.01,-0.01
737,0.91,-0.82,10.67, -0.07,-0.02,-0.01
738,0.94,-0.88,10.75, -0.07,-0.01,-0.01
739,0.97,-0.84,10.66, -0.07,-0.02,-0.01
740,0.90,-0.92,10.63, -0.07,-0.02,-0.01
741,0.92,-0.91,10.69, -0.07,-0.01,-0.01
742,0.99,-0.88,10.69, -0.07,-0.02,-0.01
743,0.97,-0.91,10.71, -0.07,-0.02,-0.01
744,0.94,-0.93,10.57, -0.07,-0.02,-0.01
745,0.94,-0.93,10.69, -0.07,-0.02,-0.01
746,0.96,-0.94,10.73, -0.07,-0.02,-0.01
747,0.98,-0.87,10.71, -0.07,-0.01,-0.01
748,1.02,-0.84,10.67, -0.07,-0.01,-0.01
749,0.94,-0.95,10.75, -0.07,-0.02,-0.01
750,0.88,-0.88,10.64, -0.07,-0.01,-0.01
751,0.95,-0.90,10.67, -0.07,-0.02,-0.01
752,0.96,-0.92,10.68, -0.07,-0.02,-0.01
753,0.89,-0.92,10.73, -0.07,-0.02,-0.01
754,0.90,-0.85,10.65, -0.07,-0.02,-0.01
755,1.01,-0.88,10.66, -0.07,-0.02,-0.01
756,0.90,-0.90,10.71, -0.07,-0.02,-0.01
757,0.97,-0.83,10.66, -0.07,-0.02,-0.01
758,0.95,-0.94,10.70, -0.07,-0.02,-0.01
759,0.96,-0.93,10.63, -0.07,-0.02,-0.01
760,0.95,-0.89,10.68, -0.07,-0.02,-0.01
761,0.93,-0.90,10.64, -0.07,-0.02,-0.01
762,0.94,-0.86,10.70, -0.07,-0.02,-0.01
763,0.91,-0.90,10.70, -0.07,-0.02,-0.01
764,0.96,-0.89,10.69, -0.07,-0.02,-0.01
765,0.91,-0.91,10.69, -0.07,-0.02,-0.01
766,0.90,-0.89,10.75, -0.07,-0.02,-0.01
767,0.98,-0.85,10.64, -0.07,-0.01,-0.01
768,0.93,-0.95,10.66, -0.07,-0.02,-0.01
769,0.94,-0.89,10.62, -0.07,-0.02,-0.01
770,0.95,-0.84,10.77, -0.07,-0.01,-0.01
771,0.92,-0.87,10.75, -0.07,-0.01,-0.01
772,0.95,-0.88,10.73, -0.07,-0.02,-0.01
773,0.93,-0.93,10.65, -0.07,-0.02,-0.01
774,0.86,-0.92,10.60, -0.07,-0.02,-0.01
775,1.00,-0.77,10.63, -0.07,-0.02,-0.01
776,0.93,-0.96,10.73, -0.07,-0.01,-0.01
777,0.91,-0.90,10.61, -0.07,-0.02,-0.01
778,0.94,-0.92,10.77, -0.07,-0.02,-0.01
779,0.93,-0.88,10.67, -0.07,-0.02,-0.01
780,0.94,-0.92,10.74, -0.07,-0.02,-0.01
781,0.94,-0.92,10.72, -0.07,-0.02,-0.01
782,0.91,-0.90,10.70, -0.07,-0.02,-0.01
783,0.87,-0.86,10.70, -0.07,-0.01,-0.01
784,0.99,-0.88,10.69, -0.07,-0.01,-0.01
785,0.94,-0.90,10.68, -0.07,-0.02,-0.01
786,0.93,-0.85,10.67, -0.07,-0.01,-0.01
787,0.95,-0.91,10.69, -0.07,-0.02,-0.01
788,0.88,-0.91,10.67, -0.07,-0.02,-0.01
789,0.90,-0.92,10.64, -0.07,-0.02,-0.01
790,0.91,-0.94,10.71, -0.07,-0.02,-0.01
791,0.90,-0.84,10.65, -0.07,-0.01,-0.01
792,0.93,-0.87,10.79, -0.07,-0.01,-0.01
793,0.88,-0.91,10.72, -0.07,-0.02,-0.01
794,0.91,-0.88,10.70, -0.07,-0.02,-0.01
795,0.86,-0.91,10.64, -0.07,-0.02,-0.01
796,0.96,-0.90,10.63, -0.07,-0.02,-0.01
797,0.90,-0.91,10.66, -0.07,-0.01,-0.01
798,0.94,-0.89,10.68, -0.07,-0.02,-0.01
799,0.95,-0.85,10.76, -0.07,-0.02,-0.01
800,0.88,-0.89,10.68, -0.07,-0.01,-0.01
801,0.98,-0.88,10.69, -0.07,-0.02,-0.01
802,0.94,-0.81,10.69, -0.07,-0.02,-0.01
803,0.96,-0.91,10.70, -0.07,-0.02,-0.01
804,0.91,-0.90,10.65, -0.07,-0.02,-0.01
805,1.04,-0.89,10.84, -0.07,-0.02,-0.01
806,0.88,-0.99,10.67, -0.07,-0.02,-0.01
807,0.95,-0.84,10.58, -0.07,-0.02,-0.01
808,0.93,-0.90,10.69, -0.07,-0.01,-0.01
809,0.93,-0.90,10.69, -0.07,-0.02,-0.01
810,0.85,-0.89,10.65, -0.07,-0.02,-0.01
811,0.94,-0.90,10.69, -0.07,-0.02,-0.01
812,0.94,-0.86,10.77, -0.07,-0.02,-0.01
813,0.96,-0.88,10.62, -0.07,-0.02,-0.01
814,0.97,-0.85,10.74, -0.07,-0.01,-0.01
815,1.00,-0.91,10.63, -0.07,-0.02,-0.01
816,0.98,-0.89,10.67, -0.07,-0.02,-0.01
817,0.90,-0.92,10.69, -0.07,-0.02,-0.01
818,0.96,-0.85,10.63, -0.07,-0.02,-0.01
819,0.94,-0.90,10.68, -0.07,-0.02,-0.01
820,0.93,-0.90,10.76, -0.07,-0.02,-0.01
821,1.00,-0.90,10.74, -0.07,-0.02,-0.01
822,0.96,-0.83,10.64, -0.07,-0.02,-0.01
823,0.90,-0.87,10.71, -0.07,-0.01,-0.01
824,0.91,-0.96,10.69, -0.07,-0.02,-0.01
825,0.91,-0.93,10.72, -0.07,-0.02,-0.01
826,0.92,-0.90,10.70, -0.07,-0.02,-0.01
827,0.92,-0.85,10.63, -0.07,-0.01,-0.01
828,0.89,-0.95,10.60, -0.07,-0.01,-0.01
829,0.88,-0.90,10.70, -0.07,-0.02,-0.01
830,0.91,-0.93,10.74, -0.07,-0.02,-0.01
831,0.98,-0.87,10.68, -0.07,-0.02,-0.01
832,0.92,-0.90,10.77, -0.07,-0.02,-0.01
833,0.96,-0.88,10.69, -0.07,-0.01,-0.01
834,0.95,-0.93,10.63, -0.07,-0.02,-0.01
835,0.93,-0.86,10.75, -0.07,-0.01,-0.01
836,0.90,-0.85,10.72, -0.07,-0.02,-0.01
837,0.91,-0.93,10.65, -0.07,-0.02,-0.01
838,0.93,-0.91,10.73, -0.07,-0.02,-0.01
839,0.91,-0.94,10.68, -0.07,-0.02,-0.01
840,0.93,-0.92,10.72, -0.07,-0.02,-0.01
841,0.93,-0.92,10.63, -0.07,-0.02,-0.01
842,0.89,-0.83,10.68, -0.07,-0.02,-0.01
843,0.98,-0.87,10.64, -0.07,-0.02,-0.01
844,0.91,-0.86,10.71, -0.07,-0.02,-0.01
845,0.94,-0.90,10.69, -0.07,-0.02,-0.01
846,0.96,-0.91,10.66, -0.07,-0.02,-0.01
847,0.91,-0.89,10.64, -0.07,-0.02,-0.01
848,0.91,-0.94,10.64, -0.07,-0.01,-0.01
849,0.87,-0.86,10.62, -0.07,-0.02,-0.01
850,0.88,-0.83,10.73, -0.07,-0.02,-0.01
851,0.95,-0.89,10.63, -0.07,-0.02,-0.01
852,0.95,-0.88,10.68, -0.07,-0.02,-0.01
853,0.93,-0.96,10.72, -0.07,-0.02,-0.01
854,0.87,-0.90,10.70, -0.07,-0.02,-0.01
855,0.95,-0.84,10.69, -0.07,-0.02,-0.01
856,0.96,-0.92,10.70, -0.07,-0.02,-0.01
857,0.90,-0.87,10.74, -0.07,-0.02,-0.01
858,0.93,-0.94,10.75, -0.07,-0.02,-0.01
859,1.00,-0.94,10.66, -0.07,-0.02,-0.01
860,0.93,-0.89,10.71, -0.07,-0.02,-0.01
861,0.92,-0.88,10.70, -0.07,-0.02,-0.01
862,0.93,-0.91,10.70, -0.07,-0.02,-0.01
863,0.90,-0.91,10.73, -0.07,-0.02,-0.01
864,0.92,-0.87,10.61, -0.07,-0.01,-0.01
865,0.97,-0.91,10.78, -0.07,-0.02,-0.01
866,0.98,-0.87,10.70, -0.07,-0.02,-0.01
867,0.89,-0.91,10.66, -0.07,-0.02,-0.01
868,0.90,-0.96,10.71, -0.07,-0.02,-0.01
869,0.97,-0.87,10.75, -0.07,-0.01,-0.01
870,0.89,-0.95,10.65, -0.07,-0.02,-0.01
871,0.90,-0.87,10.62, -0.07,-0.02,-0.01
872,0.90,-0.87,10.69, -0.07,-0.02,-0.01
873,0.89,-0.90,10.69, -0.07,-0.02,-0.01
874,0.94,-0.89,10.58, -0.07,-0.02,-0.01
875,0.98,-0.87,10.67, -0.07,-0.02,-0.01
876,0.94,-0.88,10.64, -0.07,-0.02,-0.01
877,0.96,-0.89,10.58, -0.07,-0.02,-0.01
878,0.89,-0.92,10.59, -0.07,-0.02,-0.01
879,0.90,-0.96,10.65, -0.07,-0.02,-0.01
880,0.90,-0.86,10.63, -0.07,-0.02,-0.01
881,0.94,-0.90,10.67, -0.07,-0.01,-0.01
882,0.90,-0.87,10.69, -0.07,-0.02,-0.01
883,0.97,-0.90,10.74, -0.07,-0.02,-0.01
884,0.99,-0.90,10.67, -0.07,-0.02,-0.01
885,0.94,-0.87,10.66, -0.07,-0.02,-0.01
886,0.86,-0.86,10.75, -0.07,-0.02,-0.01
887,0.91,-0.89,10.67, -0.07,-0.01,-0.01
888,0.93,-0.89,10.73, -0.07,-0.01,-0.01
889,0.93,-0.90,10.63, -0.07,-0.02,-0.01
890,0.95,-0.88,10.67, -0.07,-0.02,-0.01
891,0.89,-0.86,10.64, -0.07,-0.02,-0.01
892,0.92,-0.90,10.69, -0.07,-0.02,-0.01
893,0.91,-0.89,10.66, -0.07,-0.01,-0.01
894,0.96,-0.94,10.62, -0.07,-0.02,-0.01
895,0.95,-0.89,10.69, -0.07,-0.02,-0.01
896,0.93,-0.88,10.66, -0.07,-0.02,-0.01
897,0.89,-0.96,10.70, -0.07,-0.02,-0.01
898,0.89,-0.87,10.64, -0.07,-0.02,-0.01
899,0.99,-0.85,10.67, -0.07,-0.01,-0.01
900,0.94,-0.94,10.67, -0.07,-0.02,-0.01
901,0.92,-0.89,10.67, -0.07,-0.02,-0.01
902,0.91,-0.89,10.69, -0.07,-0.02,-0.01
903,0.94,-0.88,10.70, -0.07,-0.02,-0.01
904,0.91,-0.91,10.67, -0.07,-0.02,-0.01
905,0.92,-0.91,10.72, -0.07,-0.02,-0.01
906,0.97,-0.92,10.67, -0.07,-0.01,-0.01
907,0.92,-0.91,10.91, -0.07,-0.02,-0.01
908,0.73,-0.65,10.73, -0.06,-0.02,-0.00
909,1.07,-1.01,10.69, -0.07,-0.01,-0.01
910,0.89,-0.94,10.73, -0.07,-0.03,-0.02
911,0.77,-0.61,10.73, -0.07,-0.02,-0.01
912,1.03,-1.08,10.69, -0.07,-0.00,-0.01
913,1.04,-0.98,10.71, -0.06,-0.03,-0.01
914,0.77,-0.68,10.71, -0.08,-0.02,-0.01
915,0.90,-1.01,10.66, -0.07,-0.01,-0.00
916,1.00,-0.97,10.63, -0.07,-0.02,-0.01
917,0.85,-0.84,10.71, -0.08,-0.02,-0.01
918,0.94,-1.00,10.62, -0.06,-0.02,-0.01
919,1.01,-0.91,10.61, -0.06,-0.02,-0.01
920,0.80,-0.82,10.67, -0.07,-0.02,-0.01
921,0.90,-0.96,10.68, -0.06,-0.02,-0.01
922,1.11,-0.89,10.72, -0.07,-0.02,-0.01
923,0.88,-0.87,10.74, -0.07,-0.02,-0.01
924,0.87,-0.94,10.59, -0.06,-0.02,-0.01
925,0.97,-0.89,10.66, -0.07,-0.01,-0.01
926,0.84,-0.99,10.63, -0.07,-0.02,-0.01
927,0.92,-0.87,10.69, -0.07,-0.02,-0.01
928,0.95,-0.91,10.70, -0.07,-0.02,-0.01
929,0.89,-0.92,10.67, -0.07,-0.02,-0.01
930,0.89,-0.90,10.71, -0.07,-0.02,-0.01
931,0.95,-0.93,10.66, -0.07,-0.02,-0.01
932,0.85,-0.88,10.64, -0.07,-0.02,-0.01
933,0.91,-0.84,10.64, -0.06,-0.02,-0.01
934,1.00,-0.91,10.67, -0.07,-0.01,-0.01
935,0.90,-0.95,10.74, -0.07,-0.02,-0.01
936,0.98,-0.81,10.70, -0.07,-0.02,-0.01
937,0.91,-0.91,10.72, -0.07,-0.01,-0.01
938,0.90,-0.93,10.68, -0.07,-0.02,-0.01
939,0.93,-0.93,10.67, -0.07,-0.02,-0.01
940,0.90,-0.93,10.68, -0.07,-0.02,-0.01
941,0.93,-0.90,10.65, -0.07,-0.02,-0.01
942,0.84,-0.92,10.61, -0.07,-0.02,-0.01
943,1.04,-0.89,10.53, -0.07,-0.01,-0.01
944,1.02,-0.92,10.67, -0.07,-0.02,-0.01
945,1.01,-0.93,10.61, -0.07,-0.01,-0.01
946,0.34,-1.64,10.83, -0.05,-0.02,-0.01
947,2.21,0.08,10.35, -0.09,0.04,0.02
948,0.40,-1.50,11.02, -0.02,-0.02,-0.01
949,0.72,-0.58,10.67, 0.00,-0.03,0.04
950,1.50,-1.26,10.85, 0.02,-0.06,0.03
951,2.46,0.49,10.82, -0.05,-0.01,0.11
952,0.45,-0.25,10.77, -0.24,0.08,0.01
953,0.61,-2.46,10.66, -0.10,-0.01,-0.02
954,0.66,-0.83,11.20, -0.00,-0.04,0.02
955,1.87,-0.91,11.20, -0.01,-0.09,-0.01
956,0.59,-0.62,10.10, 0.02,0.01,-0.02
957,1.87,-1.95,10.83, 0.10,-0.01,0.22
958,0.67,-1.46,10.58, 0.22,0.12,1.05
959,1.68,0.31,11.57, 0.05,0.36,0.56
960,0.59,-1.06,10.69, 0.13,0.27,0.45
961,1.50,-0.15,10.78, 0.04,0.40,0.88
962,-0.12,1.89,10.68, -0.22,0.39,0.97
963,1.43,0.79,10.79, -0.54,0.33,0.44
964,0.17,-0.18,10.33, -0.42,0.41,0.43
965,0.52,-0.85,10.82, -0.45,0.43,0.37
966,0.69,-0.77,10.57, -0.28,0.54,0.63
967,0.37,-0.31,11.75, -0.33,0.76,0.65
968,-0.28,0.14,12.36, -0.46,0.94,0.29
969,-0.55,-0.90,11.60, -0.58,0.89,0.13
970,-0.73,-1.19,10.79, -0.69,0.92,0.24
971,-0.89,-2.04,10.44, -0.94,0.47,-0.14
972,-1.12,-2.77,10.11, -1.14,-0.41,-0.25
973,-1.00,-2.89,10.66, -0.96,-0.61,0.03
974,-1.13,-2.55,10.63, -0.52,-0.48,0.33
975,-0.50,-2.44,10.97, -0.15,-0.34,0.48
976,-1.45,-2.03,11.60, 0.20,-0.14,0.77
977,-1.14,-1.44,11.39, 0.41,-0.00,0.89
978,-0.73,-1.82,10.81, 0.63,-0.10,0.97
979,-1.12,3.01,10.72, 0.78,-0.74,0.87
980,-1.30,-2.59,10.98, 0.44,-1.43,0.33
981,-1.05,-2.64,11.74, 0.37,-1.39,1.46
982,1.63,-0.13,12.43, -0.16,-0.97,0.73
983,-0.71,-0.46,11.45, -0.18,-0.66,0.23
984,-0.29,-1.19,11.60, -0.20,-0.79,0.07
985,-0.14,-2.81,11.05, -0.11,-0.71,0.16
986,1.20,-3.74,10.54, 0.27,-0.41,0.49
987,0.32,-1.53,9.07, 0.49,-0.17,0.55
988,0.81,-1.02,8.43, 0.51,-0.12,0.66
989,1.02,-0.64,8.65, 0.50,-0.10,0.59
990,0.54,-0.41,9.29, 0.46,0.05,0.43
991,0.93,0.29,9.16, 0.38,0.17,0.57
992,1.01,-0.03,9.47, 0.29,0.27,0.74
993,1.35,-0.96,9.78, 0.30,0.47,0.82
994,1.12,-1.57,10.19, 0.34,0.69,0.76
995,0.32,-2.39,9.40, 0.60,0.70,0.92
996,1.87,-1.71,9.26, 0.96,1.02,0.95
997,-7.37,-1.72,10.75, 1.15,0.93,0.91
998,-1.84,1.37,11.71, 0.92,-0.47,0.75
999,1.92,2.63,8.98, 0.29,-0.49,1.35
1000,1.42,3.41,9.52, -0.32,-0.16,1.56
1001,0.26,3.70,9.81, -1.34,-0.09,1.16
1002,1.02,1.05,8.12, -1.97,0.18,0.75
1003,-0.37,-1.75,10.33, -1.84,0.25,0.22
1004,-2.04,-3.95,11.54, -0.98,0.17,0.03
1005,0.11,-4.68,12.37, 0.27,0.28,1.05
1006,-0.24,-1.01,12.30, 0.65,0.45,1.53
1007,-0.84,2.20,11.78, 0.08,0.19,0.95
1008,-0.27,0.55,11.51, -0.54,-0.27,0.11
1009,-1.86,0.17,11.73, -0.48,-0.57,-0.23
1010,-1.15,-0.80,11.43, -0.25,-0.89,-0.50
1011,0.11,-0.47,11.65, 0.05,-0.61,-0.12
1012,1.07,-0.83,11.65, 0.16,-0.21,-0.07
1013,-0.26,2.73,10.49, 0.09,0.13,-0.14
1014,-0.46,0.00,10.04, -0.30,0.26,-0.73
1015,-0.27,-3.89,10.07, 0.42,0.55,-0.35
1016,-0.85,-2.23,11.29, 1.10,0.83,0.38
1017,0.91,-3.11,9.75, 1.20,0.99,-0.50
1018,-2.54,4.30,10.14, 0.96,0.93,-0.14
1019,-0.78,3.46,10.05, 0.12,0.31,-0.99
1020,0.12,2.59,9.95, -0.34,-0.02,-1.30
1021,1.40,0.32,10.46, -0.57,-0.25,-1.39
1022,1.54,0.86,10.51, -0.54,-0.32,-1.07
1023,-0.32,2.24,11.00, -0.35,-0.58,-1.05
1024,-1.90,2.39,11.23, -0.20,-0.84,-1.32
1025,0.47,0.74,11.69, 0.06,-0.74,-0.70
1026,0.11,-0.86,9.39, -0.04,-0.66,-0.76
1027,0.55,-2.69,9.24, 0.34,-0.79,-1.05
1028,2.76,-0.10,10.86, 0.41,-0.63,-1.41
1029,-2.33,-1.02,9.19, -0.49,-0.55,-1.60
1030,-1.85,1.56,9.18, -1.21,-1.26,-1.72
1031,2.00,-2.31,6.13, -1.56,-1.48,-2.50
1032,2.45,-4.86,7.30, -0.63,-0.69,-1.43
1033,1.87,-3.57,10.59, 0.07,0.14,-0.48
1034,1.37,-1.69,9.32, 0.46,0.22,-0.22
1035,2.21,-4.00,8.98, 0.71,0.44,-0.46
1036,1.50,-0.92,10.20, 0.60,0.89,-0.39
1037,-0.75,-0.84,11.06, 0.21,0.55,-0.32
1038,1.35,-1.15,9.33, 0.14,0.36,-0.28
1039,2.36,-3.06,10.41, 0.03,0.39,-0.42
1040,-2.01,3.46,9.89, -0.57,0.57,0.04
1041,-0.04,-1.13,10.05, -1.42,0.15,-0.22
1042,0.29,-1.99,10.58, -0.68,0.02,0.73
1043,1.43,0.35,10.22, -0.58,0.34,0.05
1044,0.34,-3.43,9.84, 0.04,0.53,0.18
1045,-0.10,-1.91,10.98, 0.23,0.54,-0.23
1046,-0.67,-1.73,12.74, 0.27,0.29,-0.01
1047,-0.87,-1.23,12.64, 0.10,-0.12,0.13
1048,-0.21,-0.86,11.84, -0.16,-0.36,0.02
1049,0.36,-1.19,10.95, -0.23,-0.39,-0.03
1050,0.65,-0.81,10.78, -0.04,-0.36,-0.03
1051,1.36,-0.24,11.27, -0.02,-0.36,-0.27
1052,0.79,-0.53,12.29, -0.24,-0.25,-0.27
1053,0.80,-0.91,12.49, -0.44,-0.17,-0.28
1054,0.24,-1.66,12.11, -0.52,-0.25,-0.41
1055,0.54,-1.70,11.56, -0.37,-0.25,-0.36
1056,0.74,-1.78,10.74, 0.15,-0.25,-0.28
1057,1.42,-1.00,10.81, 0.44,-0.17,-0.41
1058,1.07,-0.82,11.10, 0.17,-0.12,-0.58
1059,0.57,-0.64,11.17, -0.30,-0.18,-0.63
1060,0.58,-0.99,10.70, -0.52,-0.26,-0.40
1061,1.18,-0.35,11.29, -0.52,-0.20,-0.24
1062,0.66,-1.20,11.15, -0.31,-0.16,-0.24
1063,0.60,-1.30,11.37, 0.05,-0.13,-0.10
1064,0.76,-0.21,11.35, 0.03,0.06,-0.22
1065,0.26,-2.26,10.47, 0.27,0.20,0.20
1066,0.32,-1.91,9.48, 0.47,0.42,0.41
1067,1.17,-2.43,9.75, 0.49,0.56,0.36
1068,-0.29,-1.89,12.05, 0.63,0.44,0.52
1069,0.37,0.75,11.40, 0.72,-0.05,0.66
1070,0.11,-1.12,10.93, 0.64,-0.41,0.37
1071,0.59,0.67,11.21, 0.38,-0.61,0.20
1072,0.85,-0.25,10.66, -0.19,-0.74,-0.12
1073,0.82,0.12,11.06, -0.20,-0.56,0.13
1074,1.97,-0.22,10.52, -0.05,-0.28,0.21
1075,1.37,-0.11,11.03, 0.27,-0.10,0.29
1076,1.38,0.48,11.39, 0.36,-0.14,0.21
1077,0.85,0.26,11.46, 0.26,-0.31,0.13
1078,1.86,0.56,10.44, 0.13,-0.42,-0.14
1079,0.86,0.40,11.35, -0.39,-0.07,-0.63
1080,1.75,-0.56,10.98, -0.19,-0.09,-0.10
1081,0.70,-0.33,11.78, -0.19,0.14,-0.50
1082,0.40,-0.18,11.64, 0.07,-0.05,-0.46
1083,0.44,-0.29,10.43, 0.45,-0.07,-1.06
1084,2.02,-0.23,10.14, 0.85,0.15,-0.82
1085,0.33,0.64,10.27, 0.96,0.35,-0.40
1086,1.91,0.74,11.28, 0.72,0.59,-0.19
1087,0.94,0.60,11.44, 0.32,0.63,-0.58
1088,0.08,1.02,11.85, -0.22,0.65,-1.04
1089,0.45,1.49,11.28, -0.26,0.50,-1.18
1090,0.58,0.78,10.81, -0.08,0.39,-0.76
1091,0.02,0.76,10.59, 0.09,0.22,-0.36
1092,0.59,3.11,10.62, -0.14,0.02,-0.27
1093,-0.41,2.23,11.51, -0.40,0.00,-0.76
1094,0.56,-1.13,10.83, -0.02,-0.11,-0.42
1095,0.27,-0.52,10.93, 0.07,-0.21,-0.10
1096,-0.15,1.51,10.59, -0.39,-0.81,-0.33
1097,1.47,-0.33,10.66, -0.76,-0.77,-0.90
1098,0.43,0.14,10.48, -0.56,-0.68,-0.52
1099,0.30,0.97,10.05, -0.56,-0.69,-0.41
1100,0.51,0.21,10.35, -0.56,-0.93,-0.36
1101,3.19,0.20,10.87, -0.62,-0.84,-0.32
1102,1.55,0.66,10.49, -0.60,-0.42,-0.30
1103,0.62,0.35,10.54, -0.29,-0.61,0.04
1104,2.49,0.10,9.56, -0.16,-0.74,0.18
1105,2.77,-1.54,10.12, 0.01,-0.17,-0.01
1106,0.63,-0.14,10.31, 0.02,-0.10,0.15
1107,1.69,0.94,10.11, 0.06,-0.18,0.22
1108,2.21,-0.17,9.96, -0.04,-0.14,0.10
1109,1.97,0.05,10.58, -0.03,0.05,0.13
1110,1.89,-0.13,10.81, 0.10,0.06,0.20
1111,2.19,-0.33,10.76, 0.21,-0.01,0.22
1112,2.49,0.31,10.49, 0.07,-0.02,0.15
1113,2.33,0.33,10.65, -0.10,-0.00,-0.00
1114,2.08,0.17,10.49, -0.14,0.01,-0.10
1115,2.00,0.20,10.41, -0.16,0.00,-0.16
1116,2.12,0.16,10.63, -0.14,0.01,-0.20
1117,2.16,0.59,10.51, -0.18,0.02,-0.16
1118,2.47,-0.50,10.59, -0.17,0.09,-0.12
1119,2.29,-0.32,11.26, 0.19,0.14,0.19
1120,2.41,1.32,10.64, 0.21,0.17,0.47
1121,1.90,0.86,10.64, -0.05,0.34,-0.16
1122,1.73,0.39,10.95, 0.06,0.38,-0.10
1123,1.64,0.20,11.01, 0.14,0.27,-0.06
1124,1.40,0.45,10.82, 0.13,0.23,-0.00
1125,1.64,0.59,10.48, -0.03,0.11,-0.05
1126,1.74,0.29,10.78, -0.16,0.07,-0.07
1127,1.58,0.38,10.84, -0.20,-0.02,-0.09
1128,1.56,0.51,10.75, -0.12,-0.06,-0.04
1129,1.53,0.39,11.01, -0.03,-0.08,-0.03
1130,1.63,0.17,10.76, 0.05,-0.09,-0.00
1131,1.62,0.36,10.47, 0.07,-0.03,-0.00
1132,1.57,0.56,10.48, 0.06,-0.05,-0.02
1133,1.82,0.53,10.39, 0.01,-0.10,-0.01
1134,1.88,0.62,10.17, -0.07,-0.04,-0.01
1135,1.59,0.41,10.47, -0.15,-0.01,-0.05
1136,1.51,0.30,10.72, -0.19,-0.05,-0.04
1137,1.73,0.47,10.54, -0.17,-0.09,0.01
1138,1.77,0.41,10.59, -0.11,0.01,-0.01
1139,1.58,0.29,10.58, -0.04,0.07,0.00
1140,1.51,0.32,10.47, -0.04,0.07,0.02
1141,1.48,0.33,10.66, -0.12,0.01,0.01
1142,1.75,0.33,10.43, -0.18,-0.07,0.02
1143,1.41,0.26,10.67, -0.15,-0.11,0.04
1144,1.79,0.40,10.41, -0.08,-0.09,0.04
1145,1.84,0.53,10.39, -0.05,0.01,0.01
1146,1.78,0.52,10.66, -0.07,0.07,-0.01
1147,1.81,0.60,10.88, -0.06,0.07,-0.05
1148,1.66,0.74,11.03, -0.06,0.04,-0.08
1149,1.75,0.81,10.75, -0.03,0.01,-0.08
1150,1.70,0.27,10.35, 0.08,0.11,0.01
1151,1.34,0.85,10.26, 0.10,0.16,-0.03
1152,1.37,0.55,10.33, 0.12,0.09,-0.09
1153,1.57,0.47,10.31, 0.14,0.06,-0.04
1154,1.90,0.09,10.08, 0.25,0.15,0.07
1155,1.60,0.77,10.28, 0.38,0.18,0.14
1156,1.57,2.78,10.07, 0.47,0.05,0.05
1157,1.99,2.21,11.22, 0.18,-0.01,-0.18
1158,0.55,2.86,10.19, -0.01,-0.21,-0.17
1159,0.28,3.23,9.55, 0.11,-0.41,-0.51
1160,0.45,4.47,7.11, 0.60,0.08,-0.73
1161,2.16,1.19,7.28, 1.56,0.46,0.05
1162,0.18,5.48,5.84, 1.80,0.62,0.56
1163,2.06,4.09,2.88, 1.50,0.59,0.40
1164,1.90,0.26,0.23, 1.55,0.88,1.06
1165,-1.17,0.19,0.65, 1.51,0.77,0.87
1166,-0.06,0.52,0.73, 1.54,0.75,1.03
1167,0.33,0.32,0.74, 1.54,0.74,0.98
1168,-0.32,0.12,0.66, 1.55,0.72,0.96
1169,0.09,0.22,0.69, 1.55,0.71,0.90
1170,-0.07,0.28,0.72, 1.56,0.70,0.84
1171,-0.08,0.38,0.73, 1.57,0.69,0.79
1172,-0.02,0.35,0.72, 1.58,0.69,0.71
1173,-0.09,0.39,0.75, 1.59,0.69,0.62
1174,-0.05,0.43,0.81, 1.60,0.71,0.50
1175,-0.17,0.44,0.83, 1.61,0.73,0.34
1176,-0.17,0.55,0.87, 1.61,0.74,0.16
1177,-0.38,0.66,0.85, 1.61,0.76,-0.08
1178,-0.11,0.84,0.88, 1.60,0.77,-0.35
1179,-0.26,1.11,0.95, 1.55,0.83,-0.66
1180,-0.52,1.32,0.85, 1.50,0.85,-0.88
1181,0.93,1.54,1.13, 1.39,0.96,-1.46
1182,-0.22,1.72,0.84, 1.25,1.09,-1.91
1183,0.00,1.65,0.96, 1.09,1.26,-2.42
1184,-0.67,1.52,0.94, 0.91,1.40,-2.94
1185,-0.99,1.60,0.88, 0.75,1.45,-3.42
1186,-0.94,1.68,1.00, 0.56,1.49,-3.98
1187,-0.95,1.84,0.91, 0.31,1.57,-4.54
1188,-1.41,1.61,1.00, 0.03,1.63,-5.02
1189,-1.85,1.03,1.01, -0.19,1.62,-5.27
1190,-2.37,0.85,0.93, -0.40,1.52,-5.54
1191,-2.26,0.69,0.97, -0.57,1.40,-5.57
1192,-2.60,0.40,0.99, -0.70,1.22,-5.59
1193,-2.71,0.12,1.00, -0.79,1.00,-5.49
1194,-2.78,-0.30,1.01, -0.81,0.75,-5.27
1195,-2.88,-0.44,1.08, -0.80,0.51,-4.92
1196,-2.81,-1.24,1.04, -0.72,0.23,-4.46
1197,-2.65,-1.54,1.12, -0.53,-0.00,-3.80
1198,-3.10,-1.31,1.12, -0.36,-0.24,-3.10
1199,-2.85,-1.79,1.14, -0.18,-0.49,-2.33
1200,-3.28,-1.65,1.18, 0.01,-0.72,-1.52
1201,-3.28,-2.05,1.03, 0.22,-0.94,-0.66
1202,-3.04,-2.31,0.92, 0.43,-1.16,0.22
1203,-3.17,-2.07,0.91, 0.62,-1.39,1.48
1204,-3.34,-2.37,1.18, 0.73,-1.66,2.30
1205,-3.80,-1.66,0.76, 0.85,-1.85,3.41
1206,-3.64,-2.07,0.98, 0.86,-2.10,4.12
1207,-3.77,-1.45,1.16, 0.90,-2.27,5.02
1208,-4.08,0.12,1.20, 0.67,-2.45,5.39
1209,-4.10,-0.37,1.37, 0.43,-2.51,5.83
1210,-3.81,0.20,1.67, 0.19,-2.45,5.90
1211,-3.30,1.03,1.59, -0.06,-2.36,5.72
1212,-2.87,0.95,1.82, -0.26,-2.19,5.30
1213,-2.56,1.34,2.04, -0.37,-2.01,4.73
1214,-3.32,1.81,2.09, -0.55,-1.82,3.96
1215,-78.45,78.45,78.45, 5.38,-7.57,-8.73
1216,-11.13,-41.26,-78.45, -8.23,8.73,-8.73
1217,-12.53,-29.01,-53.44, -8.73,8.73,-8.73
1218,6.25,-7.15,-44.83, -8.73,8.73,-8.73
1219,3.00,-0.02,-43.70, -8.73,8.05,-8.73
1220,5.29,1.66,-43.62, -8.73,-0.58,-8.73
1221,5.29,5.18,-43.65, -8.73,-8.73,-8.73
1222,3.21,6.64,-44.29, -8.73,-8.73,-8.73
1223,2.59,9.16,-44.43, -8.73,-8.73,-8.73
1224,1.08,9.81,-43.88, -2.92,-8.73,-8.73
1225,-1.02,10.35,-42.95, 4.17,-8.73,-8.73
1226,-2.79,9.99,-41.36, 8.73,-8.73,-8.73
1227,5.04,27.41,-35.80, 8.73,-8.73,-8.73
1228,8.40,57.75,-5.40, 6.99,-4.21,-8.73
1229,-6.57,21.92,-7.86, -0.34,-4.27,-8.73
1230,-12.00,4.45,-16.32, 0.15,-6.46,-8.73
1231,-14.27,2.81,-19.76, 1.87,-8.73,-8.73
1232,-15.28,-0.12,-16.35, 3.11,-8.73,-6.98
1233,-3.13,8.00,-1.37, 2.15,-7.50,-7.04
1234,-9.01,4.38,5.63, 0.42,-5.84,-5.76
1235,-6.96,-4.92,13.97, -0.79,-3.49,-4.26
1236,-0.39,-3.45,8.75, -1.35,-1.31,-1.90
1237,-0.75,-0.16,3.17, -2.02,-0.41,-0.72
1238,-1.48,-3.17,2.56, -2.12,-0.20,0.31
1239,-3.91,-7.28,3.71, -1.80,-0.30,1.37
1240,-7.43,-11.23,6.34, -0.94,-0.66,2.74
1241,-10.39,-11.61,8.54, 0.04,-0.90,3.32
1242,-9.17,-1.06,8.21, 0.76,-1.09,2.94
1243,-8.64,-1.46,7.72, 0.85,-1.16,2.09
1244,-7.01,0.00,7.54, 0.63,-1.20,0.87
1245,-5.81,0.76,7.54, 0.21,-0.90,-0.11
1246,-5.07,-0.16,7.84, -0.24,-0.27,-0.49
1247,-5.08,-2.11,6.76, -0.43,0.19,-0.58
1248,-6.88,-3.49,6.45, -0.42,0.47,-0.28
1249,-8.32,-4.01,6.47, -0.27,0.47,0.13
1250,-8.90,-3.64,6.41, -0.01,0.26,0.29
1251,-8.69,-2.23,6.05, 0.06,0.01,0.21
1252,-8.21,-1.61,6.45, -0.04,-0.12,-0.05
1253,-7.47,-2.46,6.45, -0.13,-0.08,-0.18
1254,-7.40,-3.10,6.36, -0.09,-0.02,-0.05
1255,-7.64,-2.78,6.44, -0.02,0.01,0.10
1256,-7.99,-2.07,6.46, -0.05,0.01,0.05
1257,-7.98,-2.22,6.39, -0.10,-0.02,-0.07
1258,-7.71,-2.79,6.44, -0.08,-0.04,-0.06
1259,-7.45,-2.75,6.37, -0.05,-0.02,0.02
1260,-7.80,-2.37,6.48, -0.06,0.01,0.03
1261,-7.94,-2.35,6.31, -0.08,-0.02,-0.03
1262,-7.73,-2.62,6.35, -0.08,-0.04,-0.04
1263,-7.52,-2.61,6.48, -0.06,-0.02,0.01
1264,-7.81,-2.41,6.39, -0.07,0.00,0.01
1265,-7.93,-2.48,6.41, -0.07,-0.03,-0.02
1266,-7.67,-2.59,6.37, -0.07,-0.03,-0.03
1267,-7.66,-2.62,6.46, -0.07,-0.00,0.00
1268,-7.88,-2.52,6.40, -0.07,-0.01,0.00
1269,-7.88,-2.40,6.43, -0.07,-0.03,-0.02
1270,-7.70,-2.55,6.40, -0.07,-0.02,-0.02
1271,-7.76,-2.51,6.34, -0.07,-0.01,-0.00
1272,-7.86,-2.49,6.41, -0.07,-0.02,-0.00
1273,-7.78,-2.48,6.42, -0.07,-0.02,-0.02
1274,-7.78,-2.58,6.40, -0.07,-0.01,-0.02
1275,-7.78,-2.56,6.43, -0.06,-0.01,-0.00
1276,-7.86,-2.45,6.51, -0.07,-0.02,-0.01
1277,-7.71,-2.48,6.41, -0.07,-0.02,-0.02
1278,-7.73,-2.54,6.44, -0.07,-0.02,-0.00
1279,-7.77,-2.48,6.41, -0.07,-0.02,-0.00
1280,-7.81,-2.46,6.40, -0.07,-0.02,-0.01
1281,-7.78,-2.54,6.39, -0.07,-0.02,-0.01
1282,-7.80,-2.55,6.39, -0.07,-0.02,-0.00
1283,-7.79,-2.46,6.46, -0.07,-0.02,-0.01
1284,-7.80,-2.51,6.46, -0.07,-0.02,-0.01
1285,-7.75,-2.55,6.45, -0.07,-0.02,-0.01
1286,-7.81,-2.45,6.46, -0.07,-0.01,-0.01
1287,-7.75,-2.50,6.39, -0.07,-0.02,-0.01
1288,-7.83,-2.55,6.38, -0.07,-0.02,-0.01
1289,-7.76,-2.52,6.33, -0.07,-0.02,-0.01
1290,-7.78,-2.52,6.42, -0.07,-0.02,-0.01
1291,-7.81,-2.53,6.50, -0.07,-0.02,-0.01
1292,-7.79,-2.52,6.47, -0.07,-0.02,-0.01
1293,-7.76,-2.48,6.37, -0.07,-0.02,-0.01
1294,-7.80,-2.50,6.46, -0.07,-0.02,-0.01
1295,-7.76,-2.50,6.46, -0.07,-0.02,-0.01
1296,-7.80,-2.55,6.51, -0.07,-0.02,-0.01
1297,-7.73,-2.46,6.42, -0.07,-0.02,-0.01
1298,-7.79,-2.58,6.41, -0.07,-0.02,-0.01
1299,-7.76,-2.50,6.43, -0.07,-0.02,-0.01
1300,-7.78,-2.46,6.40, -0.07,-0.01,-0.01
1301,-7.77,-2.55,6.44, -0.07,-0.02,-0.01
1302,-7.75,-2.49,6.43, -0.07,-0.02,-0.01
1303,-7.77,-2.55,6.43, -0.07,-0.02,-0.01
1304,-7.74,-2.49,6.46, -0.07,-0.02,-0.01
1305,-7.81,-2.49,6.39, -0.07,-0.02,-0.01
1306,-7.76,-2.49,6.45, -0.07,-0.02,-0.01
1307,-7.78,-2.53,6.39, -0.07,-0.02,-0.01
1308,-7.83,-2.52,6.47, -0.07,-0.02,-0.01
1309,-7.78,-2.50,6.40, -0.07,-0.02,-0.01
1310,-7.79,-2.52,6.44, -0.07,-0.02,-0.01
1311,-7.76,-2.51,6.52, -0.07,-0.02,-0.01
1312,-7.79,-2.44,6.47, -0.07,-0.01,-0.01
1313,-7.78,-2.55,6.38, -0.07,-0.02,-0.01
1314,-7.75,-2.52,6.40, -0.07,-0.02,-0.01
1315,-7.78,-2.52,6.48, -0.07,-0.02,-0.01
1316,-7.82,-2.56,6.47, -0.07,-0.02,-0.01
1317,-7.83,-2.52,6.45, -0.07,-0.02,-0.01
1318,-7.77,-2.51,6.36, -0.07,-0.02,-0.01
1319,-7.78,-2.47,6.47, -0.07,-0.02,-0.01
1320,-7.82,-2.48,6.47, -0.07,-0.02,-0.01
1321,-7.71,-2.54,6.41, -0.07,-0.02,-0.01
1322,-7.81,-2.51,6.41, -0.07,-0.02,-0.01
1323,-7.78,-2.48,6.45, -0.07,-0.02,-0.01
1324,-7.78,-2.51,6.42, -0.07,-0.02,-0.01
1325,-7.79,-2.50,6.41, -0.07,-0.02,-0.01
1326,-7.79,-2.49,6.38, -0.07,-0.02,-0.01
1327,-7.81,-2.44,6.41, -0.07,-0.02,-0.01
1328,-7.77,-2.54,6.42, -0.07,-0.02,-0.01
1329,-7.77,-2.49,6.47, -0.07,-0.02,-0.01
1330,-7.80,-2.54,6.41, -0.07,-0.02,-0.01
1331,-7.78,-2.54,6.45, -0.07,-0.01,-0.01
1332,-7.80,-2.47,6.50, -0.07,-0.02,-0.01
1333,-7.76,-2.54,6.39, -0.07,-0.02,-0.01
1334,-7.76,-2.53,6.52, -0.07,-0.02,-0.01
1335,-7.80,-2.47,6.39, -0.07,-0.01,-0.01
1336,-7.75,-2.58,6.44, -0.07,-0.02,-0.01
1337,-7.83,-2.52,6.43, -0.07,-0.02,-0.01
1338,-7.79,-2.58,6.45, -0.07,-0.02,-0.01
1339,-7.82,-2.49,6.47, -0.07,-0.02,-0.01
1340,-7.76,-2.56,6.43, -0.07,-0.02,-0.01
1341,-7.78,-2.49,6.50, -0.07,-0.02,-0.01
1342,-7.79,-2.52,6.36, -0.07,-0.02,-0.01
1343,-7.75,-2.56,6.47, -0.07,-0.02,-0.01
1344,-7.74,-2.53,6.49, -0.07,-0.02,-0.01
1345,-7.81,-2.49,6.42, -0.07,-0.02,-0.01
1346,-7.78,-2.54,6.38, -0.07,-0.02,-0.01
1347,-7.75,-2.53,6.38, -0.07,-0.02,-0.01
1348,-7.76,-2.50,6.51, -0.07,-0.02,-0.01
1349,-7.77,-2.46,6.41, -0.07,-0.02,-0.01
1350,-7.79,-2.55,6.38, -0.07,-0.02,-0.01
1351,-7.78,-2.48,6.52, -0.07,-0.02,-0.01
1352,-7.74,-2.48,6.37, -0.07,-0.02,-0.01
1353,-7.79,-2.52,6.43, -0.07,-0.02,-0.01
1354,-7.77,-2.51,6.43, -0.07,-0.02,-0.01
1355,-7.82,-2.42,6.45, -0.07,-0.01,-0.01
1356,-7.71,-2.47,6.46, -0.07,-0.02,-0.01
1357,-7.78,-2.52,6.49, -0.07,-0.02,-0.01
1358,-7.79,-2.48,6.40, -0.07,-0.02,-0.01
1359,-7.74,-2.52,6.39, -0.07,-0.02,-0.01
1360,-7.80,-2.53,6.44, -0.07,-0.02,-0.01
1361,-7.75,-2.56,6.45, -0.07,-0.02,-0.01
1362,-7.78,-2.58,6.42, -0.07,-0.02,-0.01
1363,-7.82,-2.53,6.42, -0.07,-0.02,-0.01
1364,-7.76,-2.55,6.45, -0.07,-0.02,-0.01
1365,-7.80,-2.48,6.36, -0.07,-0.01,-0.01
1366,-7.75,-2.48,6.49, -0.07,-0.02,-0.01
1367,-7.79,-2.51,6.43, -0.07,-0.02,-0.01
1368,-7.80,-2.57,6.45, -0.07,-0.02,-0.01
1369,-7.78,-2.53,6.41, -0.07,-0.02,-0.01
1370,-7.79,-2.49,6.48, -0.07,-0.02,-0.01
1371,-7.69,-2.51,6.46, -0.07,-0.01,-0.01
1372,-7.75,-2.55,6.42, -0.07,-0.02,-0.01
1373,-7.76,-2.50,6.49, -0.07,-0.02,-0.01
1374,-7.79,-2.47,6.34, -0.07,-0.02,-0.01
1375,-7.72,-2.50,6.40, -0.07,-0.02,-0.01
1376,-7.85,-2.59,6.44, -0.07,-0.02,-0.01
1377,-7.78,-2.54,6.36, -0.07,-0.02,-0.01
1378,-7.74,-2.49,6.42, -0.07,-0.01,-0.01
1379,-7.78,-2.52,6.44, -0.07,-0.02,-0.01
1380,-7.79,-2.49,6.45, -0.07,-0.02,-0.01
1381,-7.77,-2.46,6.46, -0.07,-0.01,-0.01
1382,-7.76,-2.48,6.40, -0.07,-0.02,-0.01
1383,-7.75,-2.52,6.42, -0.07,-0.02,-0.01
1384,-7.78,-2.55,6.41, -0.07,-0.02,-0.01
1385,-7.77,-2.55,6.40, -0.07,-0.02,-0.01
1386,-7.79,-2.52,6.48, -0.07,-0.02,-0.01
1387,-7.77,-2.53,6.50, -0.07,-0.02,-0.01
1388,-7.79,-2.54,6.50, -0.07,-0.02,-0.01
1389,-7.80,-2.47,6.35, -0.07,-0.02,-0.01
1390,-7.76,-2.52,6.40, -0.07,-0.02,-0.01
1391,-7.78,-2.49,6.41, -0.07,-0.02,-0.01
1392,-7.71,-2.49,6.42, -0.07,-0.01,-0.01
1393,-7.84,-2.49,6.39, -0.07,-0.02,-0.01
1394,-7.84,-2.51,6.46, -0.07,-0.02,-0.01
1395,-7.82,-2.58,6.51, -0.07,-0.02,-0.01
1396,-7.76,-2.49,6.41, -0.07,-0.02,-0.01
1397,-7.82,-2.46,6.47, -0.07,-0.02,-0.01
1398,-7.79,-2.53,6.40, -0.07,-0.02,-0.01
1399,-7.76,-2.49,6.42, -0.07,-0.02,-0.01
1400,-7.77,-2.52,6.46, -0.07,-0.02,-0.01
1401,-7.74,-2.48,6.51, -0.07,-0.02,-0.01
1402,-7.76,-2.65,6.50, -0.07,-0.02,-0.01
1403,-7.82,-2.50,6.40, -0.07,-0.02,-0.00
1404,-7.70,-2.47,6.39, -0.07,-0.02,-0.02
1405,-7.72,-2.55,6.38, -0.07,-0.02,-0.01
1406,-7.76,-2.44,6.39, -0.07,-0.02,-0.00
1407,-7.80,-2.50,6.50, -0.07,-0.02,-0.01
1408,-7.82,-2.60,6.41, -0.07,-0.02,-0.01
1409,-7.73,-2.46,6.55, -0.07,-0.02,-0.01
1410,-7.78,-2.49,6.44, -0.07,-0.02,-0.01
1411,-7.74,-2.53,6.34, -0.07,-0.02,-0.01
1412,-7.80,-2.53,6.43, -0.07,-0.02,-0.01
1413,-7.76,-2.51,6.45, -0.07,-0.01,-0.01
1414,-7.80,-2.48,6.40, -0.07,-0.01,-0.01
1415,-7.77,-2.47,6.47, -0.07,-0.02,-0.01
1416,-7.75,-2.50,6.49, -0.07,-0.02,-0.01
1417,-7.77,-2.51,6.49, -0.07,-0.02,-0.01
1418,-7.73,-2.53,6.44, -0.07,-0.02,-0.01
1419,-7.82,-2.49,6.42, -0.07,-0.02,-0.01
1420,-7.79,-2.53,6.50, -0.07,-0.02,-0.01
1421,-7.80,-2.55,6.40, -0.07,-0.02,-0.01
1422,-7.77,-2.53,6.43, -0.07,-0.02,-0.01
1423,-7.83,-2.51,6.42, -0.07,-0.02,-0.01
1424,-7.79,-2.51,6.43, -0.07,-0.02,-0.01
1425,-7.82,-2.55,6.51, -0.07,-0.02,-0.01
1426,-7.80,-2.49,6.35, -0.07,-0.02,-0.01
1427,-7.83,-2.47,6.29, -0.07,-0.02,-0.01
1428,-7.73,-2.55,6.43, -0.07,-0.02,-0.00
1429,-7.77,-2.45,6.45, -0.07,-0.01,-0.01
1430,-7.77,-2.48,6.45, -0.07,-0.01,-0.01
1431,-7.71,-2.47,6.43, -0.07,-0.02,-0.01
1432,-7.80,-2.53,6.45, -0.07,-0.01,-0.01
1433,-7.83,-2.47,6.46, -0.07,-0.02,-0.01
1434,-7.77,-2.49,6.45, -0.07,-0.02,-0.01
1435,-7.74,-2.48,6.45, -0.07,-0.01,-0.01
1436,-7.80,-2.53,6.38, -0.07,-0.02,-0.01
1437,-7.75,-2.49,6.36, -0.07,-0.02,-0.01
1438,-7.76,-2.44,6.42, -0.07,-0.01,-0.01
1439,-7.85,-2.45,6.42, -0.07,-0.02,-0.01
1440,-7.74,-2.55,6.44, -0.07,-0.02,-0.01
1441,-7.70,-2.57,6.37, -0.06,-0.00,0.00
1442,-6.84,-3.98,5.15, 0.21,0.13,0.35
1443,-12.16,-0.72,5.34, -0.01,-0.44,0.35
1444,-8.51,-2.93,6.24, -0.53,-0.96,-0.73
1445,-10.91,-4.40,8.23, -0.37,-1.31,-1.12
1446,-7.08,-4.26,7.25, 0.31,-1.51,-1.55
1447,-7.06,-4.83,7.82, 0.82,-1.66,-1.71
1448,-7.36,-5.63,5.72, 1.39,-1.84,-1.10
1449,-9.73,-5.04,6.45, 1.82,-2.19,-0.71
1450,-6.07,-0.40,8.25, 1.66,-2.77,-1.10
1451,-8.19,-3.51,8.24, 1.86,-3.02,-1.28
1452,-3.90,-2.23,8.49, 2.12,-3.32,-1.46
1453,-4.16,-2.36,8.75, 2.09,-3.51,-0.69
1454,-29.92,32.24,5.17, 1.26,-4.58,1.63
1455,-8.27,1.98,9.96, 1.62,-2.34,-0.64
1456,2.39,1.78,10.72, 0.61,-1.69,0.27
1457,-7.77,0.85,10.42, -0.02,-1.45,0.04
1458,0.84,0.44,8.07, -0.07,-0.92,-0.33
1459,1.30,-0.13,9.45, 0.51,-0.06,-0.72
1460,2.64,1.26,9.89, 0.60,0.42,-0.97
1461,-0.36,1.62,11.30, 0.43,0.29,-0.71
1462,-2.07,0.80,12.26, -0.04,-0.30,-1.03
1463,-0.53,0.64,12.39, -0.10,-0.57,-1.58
1464,-0.07,0.69,12.84, 0.06,-0.50,-1.64
1465,0.19,0.87,14.46, 0.25,-0.36,-1.06
1466,0.14,0.72,15.57, 0.31,-0.17,-1.18
1467,-0.39,1.43,16.01, 0.35,-0.23,-1.31
1468,0.08,1.92,16.32, 0.34,-0.27,-1.20
1469,0.10,1.24,16.00, 0.54,-0.33,-0.88
1470,0.03,1.26,15.74, 0.73,-0.44,-0.71
1471,0.05,2.87,16.01, 0.82,-0.34,-0.47
1472,-0.07,1.73,15.07, 0.91,-0.30,-0.18
1473,-0.82,2.20,14.47, 0.81,-0.40,0.19
1474,1.45,1.42,14.27, 0.82,-0.05,0.32
1475,1.31,0.31,13.61, 0.71,0.04,0.37
1476,0.30,0.19,12.63, 0.53,-0.26,0.49
1477,1.34,0.34,11.89, 0.37,-0.21,0.09
1478,0.37,1.66,11.58, 0.35,0.02,0.06
1479,1.17,2.42,11.67, 0.22,0.30,0.56
1480,-0.18,2.38,11.40, 0.13,0.22,0.56
1481,0.23,2.63,11.24, 0.14,-0.04,0.87
1482,-0.68,2.71,10.96, 0.31,-0.45,1.04
1483,-0.09,2.92,11.01, 0.49,-0.58,0.87
1484,0.23,3.18,10.50, 0.29,-0.25,0.52
1485,2.02,3.23,10.08, -0.03,0.38,0.24
1486,1.40,2.92,8.88, -0.29,0.69,0.64
1487,-0.22,2.33,8.36, -0.27,0.12,0.43
1488,0.53,2.54,7.98, -0.03,-0.25,0.15
1489,0.37,3.05,7.07, 0.14,-0.50,0.04
1490,-0.03,2.57,6.52, 0.23,-0.66,0.07
1491,0.05,1.74,6.90, 0.42,-0.68,0.33
1492,1.35,3.07,7.24, 0.39,-0.41,0.64
1493,1.55,2.89,7.54, 0.25,-0.07,0.34
1494,1.13,1.92,7.13, 0.29,-0.17,0.10
1495,1.03,1.15,7.02, 0.41,-0.33,0.51
1496,0.72,2.29,8.05, 0.54,-0.50,0.77
1497,2.58,1.85,8.49, 0.52,-0.41,0.44
1498,2.09,1.07,8.46, 0.64,-0.11,0.64
1499,3.07,2.37,12.18, 0.20,0.41,0.55
1500,4.58,1.66,7.15, -1.60,0.76,0.83
1501,1.00,-1.08,8.55, -0.72,0.23,1.74
1502,1.51,-0.25,8.65, -0.00,0.11,1.32
1503,-0.39,0.24,8.24, 0.58,-0.27,0.93
1504,-0.27,0.68,8.44, 0.36,-0.46,0.74
1505,1.85,0.63,8.54, -0.06,-0.64,1.42
1506,1.05,1.20,10.06, -0.20,-0.60,1.50
1507,1.49,0.69,10.17, -0.12,-0.52,1.56
1508,2.40,0.54,10.46, 0.07,-0.31,1.35
1509,2.51,0.62,9.75, 0.25,-0.09,1.09
1510,1.41,0.94,10.25, 0.30,-0.14,1.05
1511,1.50,1.16,9.62, 0.31,-0.17,0.93
1512,1.22,0.02,9.84, 0.73,-0.51,1.73
1513,0.60,4.95,10.37, 0.47,-0.23,0.93
1514,3.52,1.02,10.52, 0.24,0.12,1.04
1515,2.20,1.46,10.19, 0.30,0.47,0.96
1516,2.63,2.76,10.45, 0.14,0.61,1.10
1517,1.84,4.10,10.00, -0.20,0.67,0.93
1518,1.61,3.24,10.07, -0.70,0.55,0.66
1519,2.36,0.27,10.22, -0.81,0.69,0.55
1520,0.51,-0.52,9.85, -0.47,0.70,0.42
1521,0.81,0.65,9.77, -0.26,0.53,0.41
1522,1.73,0.32,9.65, -0.12,0.47,0.49
1523,1.92,1.29,9.25, -0.07,0.60,0.52
1524,1.34,0.44,9.12, -0.14,0.67,0.34
1525,2.03,0.20,9.61, -0.06,0.86,0.14
1526,1.19,0.65,9.62, -0.05,0.96,0.02
1527,-0.07,0.11,10.54, 0.09,0.80,-0.04
1528,0.05,0.74,10.86, 0.25,0.52,-0.07
1529,1.22,0.93,10.66, 0.32,0.16,0.00
1530,2.96,0.80,10.94, 0.40,0.25,-0.07
1531,2.45,2.08,11.45, 0.36,0.44,-0.20
1532,1.96,2.04,11.37, 0.22,0.49,-0.28
1533,1.92,1.94,11.44, 0.20,0.41,-0.31
1534,2.23,4.92,11.31, -0.12,0.29,0.05
1535,1.26,1.75,11.01, -0.43,0.12,-0.02
1536,1.34,1.34,11.04, -0.31,0.02,0.00
1537,1.09,0.81,11.49, -0.17,-0.12,-0.10
1538,1.39,1.75,11.22, 0.10,-0.14,-0.10
1539,1.18,2.66,11.17, 0.03,-0.21,-0.07
1540,1.46,2.67,10.64, -0.03,-0.24,-0.01
1541,0.98,3.30,10.61, -0.12,-0.14,0.07
1542,0.84,3.21,10.20, -0.32,-0.21,0.07
1543,1.23,1.98,9.82, -0.39,-0.18,0.06
1544,1.00,2.56,9.84, -0.36,-0.22,0.06
1545,1.84,2.31,9.57, -0.40,-0.17,0.05
1546,1.77,2.22,9.32, -0.39,-0.04,0.02
1547,1.46,2.38,9.47, -0.38,0.03,0.05
1548,1.85,2.14,9.37, -0.37,0.07,0.09
1549,1.42,2.20,9.52, -0.31,0.14,0.14
1550,1.63,2.32,9.55, -0.23,0.21,0.09
1551,2.44,1.69,9.90, -0.14,0.33,0.09
1552,1.84,1.43,10.36, 0.02,0.36,0.23
1553,0.69,0.49,11.88, 0.22,0.25,0.40
1554,-0.60,1.18,12.04, 0.25,0.21,0.39
1555,-1.39,-0.37,10.26, 0.13,0.01,0.35
1556,-0.42,-1.90,9.24, 0.25,-0.13,0.20
1557,1.52,-0.71,9.81, 0.31,-0.10,0.15
1558,1.54,-0.39,11.04, 0.22,-0.01,0.14
1559,1.55,-1.38,11.35, 0.21,0.09,0.21
1560,0.17,-1.13,12.39, 0.21,0.18,0.12
1561,-0.88,-1.25,12.61, 0.16,0.12,0.09
1562,-0.78,-0.88,12.82, 0.12,-0.10,0.19
1563,-0.42,-0.41,12.83, 0.04,-0.15,0.26
1564,-0.35,-0.05,12.04, -0.13,-0.18,0.25
1565,0.37,-0.82,11.30, -0.22,-0.27,0.15
1566,0.52,-0.50,10.63, -0.17,-0.26,0.03
1567,0.83,0.77,10.31, -0.23,-0.36,-0.23
1568,2.22,0.49,10.52, -0.43,-0.34,-0.52
1569,0.08,0.26,11.03, -0.40,-0.08,-0.90
1570,-0.03,-1.61,12.39, -0.30,-0.00,-1.72
1571,1.64,-2.57,12.53, 0.15,0.26,-0.89
1572,0.73,1.15,11.64, -0.17,0.39,-0.59
1573,3.11,0.78,10.89, -0.37,0.66,-0.74
1574,1.57,-0.39,9.70, -0.10,0.66,0.18
1575,-0.07,-2.02,13.03, 0.02,0.72,0.15
1576,-0.98,-1.20,12.77, -0.12,0.62,-0.21
1577,-1.58,-0.17,11.83, 0.10,0.04,-0.08
1578,1.89,1.59,10.20, -0.33,0.02,0.02
1579,1.77,-0.35,12.53, -0.75,0.37,-0.05
1580,1.17,-1.82,14.57, -0.68,0.16,-0.12
1581,2.71,-0.32,14.89, -0.75,-0.24,-0.05
1582,3.38,0.08,15.95, -1.36,-0.25,-0.10
1583,2.22,-2.09,19.02, -1.58,-0.29,-0.32
1584,0.13,-1.62,20.64, -1.11,-0.44,-0.39
1585,0.56,0.17,18.13, -0.49,-0.78,-0.40
1586,1.30,2.61,16.91, -0.44,-0.57,-0.40
1587,1.65,1.67,14.23, -0.48,-0.65,-0.51
1588,0.91,3.28,12.87, -0.95,-0.86,-0.62
1589,1.94,1.93,11.04, -1.23,-0.94,-0.69
1590,1.11,1.37,10.42, -1.44,-0.75,-0.59
1591,-0.77,1.74,10.27, -1.58,-0.77,-0.86
1592,0.18,-3.20,8.90, -1.26,-1.09,-1.22
1593,0.36,1.27,6.95, -0.62,-1.34,-1.34
1594,0.06,4.17,6.08, -0.74,-1.15,-0.99
1595,1.47,0.29,7.42, -0.58,-0.66,-0.89
1596,0.49,-0.26,6.81, -0.21,-0.60,-1.11
1597,0.05,0.69,5.99, -0.09,-0.76,-1.15
1598,0.05,1.75,6.16, -0.07,-0.65,-0.98
1599,1.08,1.19,6.93, -0.04,-0.23,-0.87
1600,2.41,0.78,8.49, 0.01,0.24,-0.92
1601,2.68,0.30,9.03, 0.28,0.25,-0.76
1602,1.92,0.18,7.60, 0.50,-0.11,-0.38
1603,3.50,0.17,7.30, 0.57,-0.04,-0.31
1604,1.98,2.62,9.62, -0.21,0.41,-0.43
1605,1.35,-0.45,11.08, -0.72,0.57,-0.33
1606,1.93,-2.31,10.23, -0.31,0.28,-0.11
1607,2.19,-4.19,8.64, 0.52,0.11,-0.03
1608,2.59,-1.63,8.48, 0.95,0.04,-0.11
1609,1.99,-0.53,9.14, 0.61,0.21,-0.33
1610,1.18,0.60,10.84, 0.04,0.40,-0.40
1611,0.37,-0.19,10.64, -0.21,-0.07,-0.25
1612,1.89,-2.11,9.55, 0.12,-0.42,0.02
1613,3.12,-1.08,9.41, 0.45,-0.16,0.17
1614,2.20,0.07,9.80, 0.75,0.34,0.08
1615,0.06,-0.28,10.64, 0.59,0.26,-0.07
1616,0.65,0.44,10.41, 0.36,-0.22,-0.15
1617,1.47,-0.33,9.98, 0.23,-0.37,-0.07
1618,3.64,-0.15,9.52, 0.31,-0.25,-0.05
1619,4.05,1.39,8.90, 0.02,-0.07,-0.12
1620,3.88,2.41,9.13, -0.67,-0.04,-0.35
1621,4.99,1.57,9.38, -1.23,-0.30,-0.53
1622,5.28,-0.71,8.48, -1.06,-0.45,-0.43
1623,3.96,0.47,8.14, -0.84,-0.52,-0.16
1624,3.53,0.88,8.96, -0.82,-0.30,-0.02
1625,2.66,-1.98,9.98, -0.65,-0.19,0.13
1626,2.59,-2.89,9.56, 0.00,-0.28,0.10
1627,3.79,-1.56,8.14, 0.48,-0.23,0.08
1628,2.98,1.27,8.66, 0.35,-0.05,0.14
1629,2.37,0.77,10.18, 0.03,-0.00,0.20
1630,2.61,0.15,10.69, 0.09,-0.14,0.20
1631,3.25,-0.09,10.25, 0.15,-0.13,0.13
1632,4.00,1.29,10.27, -0.03,0.10,0.09
1633,3.53,0.66,11.03, -0.26,0.27,0.14
1634,3.21,-0.74,12.87, -0.41,0.37,0.03
1635,2.24,0.08,13.96, -0.53,0.33,-0.09
1636,1.07,-0.02,14.71, -0.76,0.04,-0.08
1637,0.81,-2.12,14.02, -0.62,-0.38,-0.06
1638,1.41,-1.73,12.82, -0.40,-0.61,-0.11
1639,1.14,-1.40,11.81, -0.33,-0.48,-0.07
1640,2.20,-2.76,11.60, -0.09,-0.33,0.02
1641,2.17,-2.21,12.17, 0.21,0.04,0.07
1642,1.83,-2.43,12.47, 0.46,0.06,0.07
1643,0.87,-0.79,11.91, 0.65,-0.26,0.00
1644,3.14,-1.48,10.24, 0.83,-0.51,-0.08
1645,4.63,0.31,7.41, 1.02,-0.45,-0.13
1646,5.01,2.79,6.99, 0.59,-0.26,-0.03
1647,5.43,0.98,7.48, 0.29,-0.07,0.08
1648,5.23,0.57,8.00, 0.37,0.01,0.18
1649,5.10,0.43,8.21, 0.37,0.05,0.10
1650,5.10,-0.14,7.91, 0.35,0.09,0.04
1651,4.23,0.84,7.80, 0.24,-0.00,0.03
1652,4.25,0.96,8.20, 0.05,0.03,0.07
1653,3.90,0.47,9.13, -0.06,0.06,0.06
1654,4.01,0.67,9.25, 0.00,0.06,0.03
1655,4.20,0.08,9.36, -0.08,0.02,0.03
1656,4.50,-0.17,9.29, -0.01,0.04,0.07
1657,4.29,-0.07,9.36, -0.00,0.07,0.07
1658,3.75,-0.04,9.62, -0.03,0.01,0.07
1659,3.94,-0.17,9.76, -0.06,0.03,0.01
1660,3.86,0.17,10.14, -0.06,0.10,-0.03
1661,3.70,0.00,10.51, -0.02,0.01,-0.01
1662,3.97,-0.44,10.29, 0.06,-0.06,0.04
1663,3.66,0.07,9.84, 0.07,-0.02,-0.01
1664,3.43,0.32,9.85, -0.04,-0.00,-0.08
1665,3.34,0.26,9.94, -0.09,0.07,-0.13
1666,3.01,0.76,10.31, -0.13,-0.01,-0.12
1667,3.61,0.25,10.01, 0.00,-0.12,-0.04
1668,3.96,0.81,9.46, 0.10,-0.05,0.05
1669,4.15,1.19,9.34, 0.07,0.04,0.09
1670,4.28,0.51,9.67, -0.02,0.10,0.09
1671,3.96,0.45,10.36, -0.04,0.13,0.03
1672,3.08,0.93,10.93, -0.13,0.01,0.01
1673,3.49,-0.28,11.09, -0.10,-0.06,0.01
1674,3.72,-0.43,10.30, 0.17,-0.10,0.05
1675,4.25,1.16,9.72, 0.15,0.04,0.05
1676,4.26,1.11,9.97, 0.06,0.09,0.08
1677,4.39,0.82,9.67, 0.03,-0.04,0.06
1678,4.41,1.50,9.65, -0.25,-0.05,-0.08
1679,4.35,-0.01,10.05, -0.35,-0.11,-0.15
1680,4.47,-0.11,9.55, -0.14,-0.09,-0.07
1681,4.70,0.28,9.18, 0.01,-0.03,0.05
1682,4.55,0.25,9.44, 0.14,0.07,0.10
1683,3.72,0.19,9.05, 0.14,-0.13,0.06
1684,4.30,-0.61,8.26, 0.10,-0.12,-0.11
1685,1.37,0.55,6.92, -0.09,-0.60,1.17
1686,-1.56,1.83,0.37, -0.79,-0.57,3.00
1687,0.19,-0.61,1.02, -0.76,-0.67,2.38
1688,0.75,0.66,0.80, -0.77,-0.54,2.43
1689,-0.64,0.08,0.93, -0.76,-0.48,2.54
1690,0.45,0.16,0.87, -0.78,-0.44,2.54
1691,-0.08,-0.02,0.92, -0.79,-0.37,2.54
1692,-0.15,0.04,0.93, -0.79,-0.33,2.56
1693,0.23,0.08,0.89, -0.80,-0.26,2.57
1694,0.01,0.13,0.96, -0.80,-0.22,2.64
1695,0.19,0.07,0.94, -0.80,-0.16,2.70
1696,-0.09,0.06,0.95, -0.80,-0.11,2.78
1697,0.18,0.04,1.00, -0.80,-0.05,2.86
1698,-0.03,-0.00,0.96, -0.80,0.01,2.96
1699,0.04,-0.05,1.00, -0.80,0.08,3.08
1700,-0.06,-0.15,1.04, -0.79,0.15,3.24
1701,-0.02,-0.16,1.18, -0.77,0.22,3.42
1702,-0.13,-0.37,1.10, -0.73,0.30,3.66
1703,-0.30,-0.49,1.20, -0.66,0.34,3.93
1704,-0.36,-0.50,1.18, -0.58,0.38,4.24
1705,-0.59,-0.48,1.19, -0.49,0.40,4.57
1706,-0.36,-0.53,1.25, -0.41,0.44,4.92
1707,-0.55,-0.67,1.32, -0.28,0.50,5.34
1708,-0.56,-0.72,1.34, -0.17,0.53,5.70
1709,-1.13,-0.54,1.38, 0.01,0.57,6.15
1710,-74.98,-78.45,78.45, -1.97,8.59,8.73
1711,-75.19,0.55,25.00, -0.70,7.30,6.54
1712,-52.69,0.40,8.77, -0.40,2.31,1.14
1713,-18.41,-2.86,6.34, -0.01,-0.92,-0.47
1714,-6.78,-1.50,4.99, 0.44,-1.72,-0.21
1715,-1.66,0.13,2.31, 0.29,-1.59,-0.34
1716,0.24,-0.06,0.67, 0.03,-1.37,-0.70
1717,1.38,-0.13,0.03, -0.00,-0.88,-1.14
1718,0.31,0.07,1.71, 0.02,-0.34,-1.04
1719,-1.61,-0.89,5.69, -0.05,0.23,-0.75
1720,-3.60,-1.62,10.02, -0.41,1.31,0.05
1721,-11.12,-3.69,8.54, -0.61,2.00,0.66
1722,-17.70,-4.80,5.96, -0.31,1.72,0.97
1723,-17.14,-3.32,3.66, 0.14,0.08,1.08
1724,-9.04,-1.05,4.25, 0.24,-0.73,0.77
1725,-5.45,0.22,5.36, 0.09,-0.48,0.34
1726,-5.78,-0.03,6.32, -0.10,0.08,-0.05
1727,-9.29,-1.04,5.62, -0.18,0.30,-0.30
1728,-10.86,-1.98,4.83, -0.14,0.05,-0.35
1729,-8.69,-1.89,5.30, -0.06,-0.19,-0.19
1730,-7.36,-1.64,5.73, -0.06,-0.04,0.02
1731,-8.68,-1.51,5.36, -0.06,0.08,0.13
1732,-9.44,-1.42,5.17, -0.05,-0.02,0.08
1733,-8.46,-1.22,5.59, -0.07,-0.05,-0.06
1734,-8.47,-1.49,5.50, -0.08,-0.00,-0.07
1735,-8.87,-1.64,5.35, -0.07,-0.01,-0.02
1736,-8.84,-1.45,5.39, -0.06,-0.03,0.04
1737,-8.55,-1.27,5.40, -0.06,-0.02,0.02
1738,-8.69,-1.37,5.32, -0.08,-0.00,-0.04
1739,-8.73,-1.55,5.36, -0.07,-0.02,-0.05
1740,-8.66,-1.53,5.32, -0.06,-0.02,0.01
1741,-8.74,-1.43,5.42, -0.06,-0.01,0.02
1742,-8.81,-1.38,5.48, -0.07,-0.02,-0.02
1743,-8.69,-1.48,5.32, -0.07,-0.02,-0.03
1744,-8.64,-1.50,5.35, -0.07,-0.02,-0.01
1745,-8.77,-1.47,5.37, -0.06,-0.01,0.00
1746,-8.74,-1.42,5.43, -0.07,-0.02,-0.01
1747,-8.70,-1.44,5.33, -0.07,-0.02,-0.02
1748,-8.71,-1.48,5.27, -0.07,-0.02,-0.01
1749,-8.70,-1.51,5.47, -0.07,-0.02,-0.00
1750,-8.74,-1.42,5.39, -0.07,-0.02,-0.01
1751,-8.70,-1.41,5.37, -0.07,-0.02,-0.02
1752,-8.75,-1.52,5.39, -0.07,-0.02,-0.02
1753,-8.70,-1.43,5.30, -0.07,-0.02,-0.00
1754,-8.78,-1.44,5.36, -0.07,-0.02,-0.01
1755,-8.73,-1.52,5.36, -0.07,-0.02,-0.02
1756,-8.72,-1.51,5.41, -0.07,-0.02,-0.02
1757,-8.74,-1.47,5.37, -0.07,-0.02,-0.00
1758,-8.72,-1.42,5.44, -0.07,-0.02,-0.01
1759,-8.72,-1.46,5.40, -0.07,-0.01,-0.01
1760,-8.67,-1.47,5.43, -0.07,-0.02,-0.01
1761,-8.70,-1.44,5.36, -0.07,-0.02,-0.01
1762,-8.72,-1.42,5.39, -0.07,-0.02,-0.01
1763,-8.71,-1.46,5.35, -0.07,-0.02,-0.01
1764,-8.71,-1.46,5.43, -0.07,-0.02,-0.01
1765,-8.71,-1.43,5.41, -0.07,-0.02,-0.01
1766,-8.74,-1.48,5.32, -0.07,-0.02,-0.01
1767,-8.70,-1.44,5.45, -0.07,-0.02,-0.01
1768,-8.73,-1.47,5.37, -0.07,-0.02,-0.01
1769,-8.72,-1.50,5.46, -0.07,-0.02,-0.01
1770,-8.72,-1.49,5.37, -0.07,-0.01,-0.01
1771,-8.76,-1.49,5.35, -0.07,-0.02,-0.01
1772,-8.72,-1.45,5.33, -0.07,-0.02,-0.01
1773,-8.81,-1.45,5.43, -0.07,-0.02,-0.01
1774,-8.70,-1.41,5.33, -0.07,-0.01,-0.01
1775,-8.75,-1.41,5.36, -0.07,-0.01,-0.01
1776,-8.71,-1.43,5.46, -0.07,-0.02,-0.01
1777,-8.76,-1.43,5.36, -0.07,-0.02,-0.01
1778,-8.72,-1.43,5.41, -0.07,-0.02,-0.01
1779,-8.67,-1.48,5.39, -0.07,-0.02,-0.01
1780,-8.69,-1.44,5.36, -0.07,-0.02,-0.01
1781,-8.73,-1.44,5.36, -0.07,-0.02,-0.01
1782,-8.73,-1.45,5.39, -0.07,-0.02,-0.01
1783,-8.71,-1.48,5.37, -0.07,-0.02,-0.01
1784,-8.66,-1.48,5.37, -0.07,-0.02,-0.01
1785,-8.72,-1.41,5.44, -0.07,-0.02,-0.01
1786,-8.73,-1.44,5.33, -0.07,-0.02,-0.01
1787,-8.77,-1.47,5.39, -0.07,-0.02,-0.01
1788,-8.73,-1.44,5.36, -0.07,-0.02,-0.01
1789,-8.71,-1.46,5.37, -0.07,-0.02,-0.01
1790,-8.66,-1.46,5.42, -0.07,-0.02,-0.01
1791,-8.73,-1.44,5.42, -0.07,-0.02,-0.01
1792,-8.64,-1.45,5.40, -0.07,-0.02,-0.01
1793,-8.79,-1.52,5.37, -0.07,-0.02,-0.01
1794,-8.74,-1.44,5.44, -0.07,-0.02,-0.01
1795,-8.72,-1.44,5.45, -0.07,-0.02,-0.01
1796,-8.74,-1.50,5.39, -0.07,-0.02,-0.01
1797,-8.73,-1.45,5.39, -0.07,-0.02,-0.01
1798,-8.67,-1.48,5.46, -0.07,-0.02,-0.01
1799,-8.71,-1.49,5.38, -0.07,-0.02,-0.01
1800,-8.72,-1.46,5.41, -0.07,-0.02,-0.01
1801,-8.79,-1.43,5.38, -0.07,-0.02,-0.01
1802,-8.73,-1.44,5.37, -0.07,-0.02,-0.01
1803,-8.78,-1.47,5.34, -0.07,-0.02,-0.01
1804,-8.70,-1.44,5.36, -0.07,-0.02,-0.01
1805,-8.73,-1.51,5.46, -0.07,-0.02,-0.01
1806,-8.73,-1.45,5.36, -0.07,-0.02,-0.01
1807,-8.73,-1.44,5.47, -0.07,-0.02,-0.01
1808,-8.71,-1.40,5.32, -0.07,-0.02,-0.01
1809,-8.66,-1.43,5.40, -0.07,-0.02,-0.01
1810,-8.75,-1.50,5.47, -0.07,-0.02,-0.01
1811,-8.69,-1.45,5.30, -0.07,-0.02,-0.01
1812,-8.65,-1.45,5.38, -0.07,-0.02,-0.01
1813,-8.74,-1.46,5.39, -0.07,-0.02,-0.01
1814,-8.77,-1.44,5.42, -0.07,-0.02,-0.01
1815,-8.67,-1.43,5.45, -0.07,-0.02,-0.01
1816,-8.74,-1.45,5.34, -0.07,-0.02,-0.01
1817,-8.70,-1.48,5.41, -0.07,-0.02,-0.01
1818,-8.71,-1.46,5.40, -0.07,-0.02,-0.01
1819,-8.75,-1.41,5.36, -0.07,-0.01,-0.01
1820,-8.72,-1.47,5.26, -0.07,-0.02,-0.01
1821,-8.71,-1.44,5.40, -0.07,-0.02,-0.01
1822,-8.77,-1.44,5.34, -0.07,-0.02,-0.01
1823,-8.73,-1.39,5.38, -0.07,-0.02,-0.01
1824,-8.70,-1.45,5.37, -0.07,-0.01,-0.01
1825,-8.72,-1.40,5.37, -0.07,-0.02,-0.01
1826,-8.68,-1.47,5.32, -0.07,-0.02,-0.01
1827,-8.72,-1.50,5.36, -0.07,-0.02,-0.01
1828,-8.71,-1.45,5.39, -0.07,-0.02,-0.01
1829,-8.71,-1.49,5.38, -0.07,-0.02,-0.01
1830,-8.70,-1.46,5.34, -0.07,-0.02,-0.01
1831,-8.72,-1.44,5.40, -0.07,-0.02,-0.01
1832,-8.65,-1.40,5.39, -0.07,-0.01,-0.01
1833,-8.72,-1.48,5.38, -0.07,-0.02,-0.01
1834,-8.74,-1.42,5.39, -0.07,-0.02,-0.01
1835,-8.74,-1.49,5.37, -0.07,-0.02,-0.01
1836,-8.72,-1.46,5.26, -0.07,-0.02,-0.01
1837,-8.78,-1.41,5.32, -0.07,-0.02,-0.01
1838,-8.74,-1.48,5.34, -0.07,-0.01,-0.01
1839,-8.65,-1.43,5.41, -0.07,-0.01,-0.01
1840,-8.82,-1.37,5.17, -0.08,-0.02,-0.01
1841,-8.84,-1.44,5.17, -0.08,-0.06,-0.04
1842,-8.69,-1.44,5.41, -0.09,-0.07,-0.05
1843,-8.41,-1.51,5.71, -0.10,-0.02,-0.03
1844,-8.57,-1.71,6.00, -0.06,-0.02,-0.01
1845,-8.64,-1.51,5.06, -0.08,0.10,-0.03
1846,-9.24,-1.58,4.74, -0.08,-0.01,0.05
1847,-8.54,-1.36,5.66, -0.05,-0.12,-0.02
1848,-8.46,-1.45,5.84, -0.08,0.04,-0.03
1849,-8.83,-1.59,5.14, -0.07,0.01,-0.02
1850,-8.74,-1.58,5.39, -0.07,-0.04,-0.02
1851,-8.67,-1.47,5.48, -0.06,-0.02,0.01
1852,-8.66,-1.42,5.50, -0.07,-0.01,0.00
1853,-8.78,-1.46,5.35, -0.08,0.00,-0.04
1854,-8.76,-1.58,5.31, -0.07,-0.04,-0.01
1855,-8.61,-1.37,5.50, -0.07,-0.01,0.01
1856,-8.85,-1.43,5.42, -0.07,-0.01,-0.02
1857,-8.71,-1.47,5.29, -0.07,-0.02,-0.03
1858,-8.71,-1.52,5.36, -0.07,-0.02,-0.00
1859,-8.74,-1.46,5.40, -0.07,-0.01,0.00
1860,-8.75,-1.47,5.38, -0.07,-0.02,-0.02
1861,-8.68,-1.47,5.47, -0.07,-0.02,-0.02
1862,-8.72,-1.51,5.39, -0.07,-0.01,-0.00
1863,-8.71,-1.38,5.31, -0.07,-0.02,-0.00
1864,-8.80,-1.47,5.42, -0.07,-0.02,-0.01
1865,-8.68,-1.51,5.43, -0.07,-0.02,-0.02
1866,-8.69,-1.42,5.40, -0.07,-0.02,-0.01
1867,-8.66,-1.49,5.36, -0.07,-0.02,-0.00
1868,-8.68,-1.47,5.36, -0.07,-0.02,-0.02
1869,-8.71,-1.47,5.42, -0.07,-0.02,-0.01
1870,-8.77,-1.46,5.38, -0.07,-0.02,-0.01
1871,-8.70,-1.44,5.32, -0.07,-0.02,-0.01
1872,-5.67,-2.84,5.09, -0.08,0.43,0.71
1873,-10.55,-0.54,6.29, -0.16,0.88,0.76
1874,-17.72,-2.14,1.88, 0.08,-0.23,0.27
1875,-10.90,1.23,4.05, -0.36,-1.07,-0.69
1876,-7.15,-7.36,7.75, -0.13,-0.84,-0.40
1877,-14.03,-0.62,6.63, 0.03,-1.15,0.24
1878,-9.86,-1.09,5.37, -0.05,-1.67,0.08
1879,-11.71,-1.53,6.77, 0.07,-1.86,0.48
1880,-9.36,-2.01,9.16, -0.03,-2.53,1.10
1881,-8.38,-4.64,10.08, 0.64,-2.73,0.28
1882,-11.47,-3.69,12.27, 1.84,-3.79,-1.69
1883,-5.52,-2.47,10.46, 2.55,-4.56,-2.53
1884,-6.92,0.34,11.46, 2.78,-4.78,-3.02
1885,-2.85,1.58,11.32, 2.72,-4.78,-2.88
1886,1.10,2.51,11.92, 2.35,-4.18,-1.99
1887,-4.75,5.55,15.44, 1.89,-3.46,0.48
1888,1.66,4.50,12.46, 0.58,-3.23,2.29
1889,-0.17,-1.55,10.72, -0.11,-2.80,1.65
1890,0.58,-2.51,9.67, 0.52,-2.15,-0.08
1891,3.34,1.86,9.87, 0.28,-1.46,-0.60
1892,1.48,2.82,10.72, 0.05,-0.59,-0.19
1893,3.71,0.88,11.12, 0.08,0.01,0.25
1894,2.42,1.26,10.99, 0.26,-0.03,0.25
1895,0.44,1.66,11.69, 0.44,-0.15,0.43
1896,2.69,1.67,11.64, 0.49,-0.38,0.65
1897,0.97,1.47,12.02, 0.37,-0.73,1.23
1898,1.67,0.26,9.23, 0.14,-1.15,0.94
1899,0.24,-2.56,8.83, 0.51,-1.59,0.32
1900,1.91,-0.95,7.47, 0.69,-1.86,-1.20
1901,0.32,-3.42,8.42, 1.06,-2.28,-4.74
1902,1.40,-3.69,9.75, 2.56,-1.77,-5.08
1903,0.05,7.07,8.73, 3.22,-1.69,-1.77
1904,7.60,12.75,6.79, 2.11,-1.25,0.70
1905,3.83,8.25,8.46, 0.73,-0.43,3.24
1906,3.71,1.33,8.46, 0.46,-0.11,2.55
1907,5.15,-1.53,7.71, 1.03,0.65,1.58
1908,6.71,1.04,10.08, 0.98,1.02,-0.38
1909,2.27,2.96,10.22, 0.33,0.85,-0.62
1910,5.32,3.85,8.22, -0.41,0.51,-0.34
1911,6.07,3.00,8.43, -0.83,0.67,-0.74
1912,2.71,3.21,10.98, -0.89,0.77,-0.29
1913,1.55,4.33,10.93, -1.06,0.60,0.57
1914,3.42,3.13,10.17, -1.14,0.61,0.79
1915,2.36,1.75,9.43, -0.90,0.39,0.59
1916,3.05,2.32,9.29, -0.75,0.16,0.40
1917,3.44,3.07,9.26, -0.82,0.02,0.68
1918,1.76,3.05,11.12, -1.04,-0.12,0.98
1919,4.17,0.96,9.92, -1.13,-0.31,1.00
1920,2.06,1.34,11.14, -1.12,-0.08,0.35
1921,3.71,-0.59,11.79, -0.76,0.07,-0.04
1922,1.94,-0.25,12.57, -0.55,0.28,0.32
1923,2.04,0.84,13.60, -0.54,0.39,0.55
1924,1.56,2.13,14.75, -0.69,0.67,0.87
1925,-0.96,2.89,15.77, -0.94,0.70,1.56
1926,0.16,1.58,14.21, -1.09,0.48,1.79
1927,1.19,1.09,12.97, -1.02,0.30,1.35
1928,0.75,1.77,12.12, -1.04,0.01,0.90
1929,1.03,2.31,11.29, -1.18,-0.27,0.76
1930,1.27,1.87,11.10, -1.19,-0.35,0.77
1931,1.68,1.62,10.13, -1.02,-0.36,0.68
1932,2.96,1.20,8.72, -0.81,-0.19,0.43
1933,3.01,0.62,8.39, -0.36,0.19,0.42
1934,3.06,1.99,9.55, -0.30,0.45,1.06
1935,1.65,1.39,8.74, -0.49,0.26,1.83
1936,2.32,-0.66,7.22, -0.51,0.16,1.53
1937,2.79,-1.76,6.63, -0.23,0.26,0.61
1938,0.59,-0.92,5.54, -0.02,0.22,-0.17
1939,2.36,1.71,5.91, -0.13,0.19,0.01
1940,1.82,3.32,6.45, -0.75,0.66,0.46
1941,2.22,2.35,5.49, -1.36,0.91,1.48
1942,1.20,-0.73,4.96, -1.46,1.08,1.21
1943,0.69,-1.18,4.97, -1.06,0.98,0.62
1944,0.83,0.03,6.00, -0.83,0.85,0.43
1945,1.17,0.37,6.99, -0.86,0.79,1.16
1946,0.20,-1.28,7.19, -0.86,0.68,1.58
1947,0.17,-4.00,8.54, -0.53,0.50,1.27
1948,0.32,-2.86,8.41, -0.10,0.36,0.75
1949,-0.38,-2.25,9.01, -0.02,0.27,0.31
1950,-0.26,-3.60,9.73, 0.03,0.04,0.41
1951,-1.52,-2.93,9.73, 0.12,-0.15,0.28
1952,-0.12,-2.95,10.19, 0.01,-0.48,0.13
1953,-0.73,-2.97,11.09, -0.01,-0.42,-0.29
1954,-1.48,-2.26,11.64, -0.01,-0.65,-0.51
1955,-0.58,-1.82,11.17, -0.12,-0.89,-0.23
1956,-0.24,-1.41,10.40, 0.11,-0.51,-0.84
1957,-0.80,-0.57,10.75, 0.24,-0.09,-0.92
1958,-0.08,-0.90,11.41, 0.02,0.08,-0.31
1959,-0.22,-3.43,10.67, 0.02,-0.22,-0.39
1960,1.18,-3.58,10.13, 0.27,-0.14,-1.07
1961,-1.44,-0.52,10.87, -1.01,0.60,-0.06
1962,2.40,-8.59,11.56, 0.11,1.13,-1.82
1963,-0.57,-3.53,11.69, 0.60,1.17,-2.28
1964,0.83,1.03,10.91, 0.03,0.80,-1.66
1965,-0.19,-1.12,11.15, -1.24,0.36,-0.74
1966,0.60,-4.72,11.60, -1.25,0.48,-0.80
1967,-3.05,-5.91,11.60, -0.66,0.17,-1.46
1968,0.03,-3.81,11.83, -0.15,0.01,-1.77
1969,0.57,-1.59,11.56, -0.40,-0.06,-1.32
1970,1.00,-4.22,11.86, -0.55,-0.14,-1.03
1971,1.45,-4.80,11.13, -0.17,0.10,-1.08
1972,-0.40,-4.23,10.90, 0.20,0.30,-1.16
1973,0.17,-3.08,11.54, 0.63,0.30,-1.33
1974,1.79,0.02,11.61, 0.35,0.68,-1.00
1975,-1.58,-0.81,11.05, -0.05,0.77,-0.74
1976,-2.04,-2.03,10.73, -0.11,0.56,-0.90
1977,0.17,-0.67,10.80, -0.14,0.63,-1.05
1978,0.01,0.10,10.27, -0.46,0.76,-0.96
1979,-2.25,-7.41,8.32, -0.55,0.66,-1.15
1980,-1.60,-6.13,7.36, 0.43,0.40,-1.12
1981,-0.57,-2.82,8.22, 0.50,0.34,-1.06
1982,0.04,-0.74,9.95, 0.46,0.35,-0.92
1983,-0.84,0.45,10.60, 0.11,0.29,-0.68
1984,-0.05,-1.42,10.55, -0.07,0.17,-0.46
1985,0.60,-3.66,9.87, 0.02,0.48,-0.46
1986,-1.58,-2.65,9.99, 0.25,0.53,-0.53
1987,-1.55,-1.93,10.35, 0.19,0.36,-0.39
1988,-1.29,-2.24,10.72, 0.10,0.26,-0.07
1989,-2.07,-3.79,10.87, 0.20,0.09,-0.25
1990,-1.66,-3.42,10.83, 0.66,-0.09,-0.57
1991,-0.60,-1.03,11.10, 0.69,-0.37,-0.19
1992,-0.62,-1.24,10.18, 0.43,-0.58,0.65
1993,-0.44,-1.49,11.04, 0.32,-0.78,1.49
1994,-1.02,-1.10,11.19, 0.45,-0.97,1.86
1995,-0.85,-1.84,11.01, 0.66,-1.22,1.83
1996,-0.69,-1.59,11.52, 0.78,-1.56,1.88
1997,0.43,-1.17,10.49, 0.84,-2.07,1.85
1998,1.49,-1.36,10.28, 0.70,-2.21,1.60
1999,2.63,-1.74,9.27, 0.69,-1.97,1.38
2000,4.20,-1.02,9.11, 0.50,-1.50,1.35
2001,3.35,-0.50,9.80, 0.32,-1.04,1.06
2002,3.95,-0.99,10.01, 0.17,-0.65,0.68
2003,4.74,-0.35,9.99, 0.01,-0.16,0.68
2004,2.73,-0.71,10.26, -0.09,0.02,0.59
2005,2.55,-0.62,10.79, -0.11,0.05,0.38
2006,2.09,-0.86,10.37, -0.13,-0.02,0.31
2007,2.49,-0.17,10.73, -0.12,-0.15,0.39
2008,2.76,-0.78,10.34, -0.22,-0.31,0.60
2009,2.62,-1.05,10.06, -0.20,-0.37,0.60
2010,2.62,-0.64,9.89, -0.22,-0.38,0.60
2011,2.69,-0.87,9.93, -0.19,-0.39,0.53
2012,2.83,-1.61,9.92, -0.08,-0.34,0.24
2013,3.33,-0.72,9.86, -0.02,-0.33,0.12
2014,3.14,-0.53,10.27, -0.09,-0.18,-0.22
2015,2.10,-1.78,9.92, -0.02,-0.32,-0.60
2016,3.71,-0.44,10.05, 0.04,-0.31,-0.48
2017,3.83,-0.35,9.90, -0.12,-0.18,-0.41
2018,3.22,-2.04,10.03, 0.06,-0.13,-0.46
2019,2.96,-0.05,10.08, 0.04,-0.16,-0.62
2020,2.68,0.45,10.47, -0.05,-0.27,-0.65
2021,5.15,-0.72,10.49, -0.09,-0.04,-0.77
2022,5.43,-1.09,10.29, 0.04,0.26,-1.11
2023,4.35,-1.05,9.94, 0.08,0.52,-1.20
2024,2.04,-0.56,9.98, 0.13,0.37,-1.24
2025,3.33,-0.70,9.96, 0.08,0.26,-1.22
2026,2.85,-0.04,10.22, 0.08,0.24,-1.46
2027,3.61,-0.50,10.03, 0.08,0.24,-1.56
2028,4.95,-0.44,9.69, 0.05,0.24,-1.00
2029,3.44,-0.35,10.20, 0.01,0.10,-0.46
2030,3.12,0.02,10.16, -0.05,0.05,-0.38
2031,3.39,0.03,10.41, -0.08,0.10,-0.47
2032,2.80,0.33,10.19, -0.01,0.15,-0.71
2033,3.22,-0.07,10.51, 0.07,0.06,-0.55
2034,3.40,0.23,10.47, 0.11,0.01,-0.34
2035,3.07,0.26,10.48, 0.03,0.01,-0.18
2036,3.31,0.46,10.41, -0.02,0.00,-0.13
2037,3.11,0.79,10.22, -0.08,0.02,-0.04
2038,2.79,0.45,10.14, -0.09,0.03,-0.05
2039,2.83,0.22,10.09, -0.04,0.01,-0.16
2040,3.00,0.73,10.21, -0.07,-0.02,-0.17
2041,2.87,0.62,10.39, -0.08,-0.05,-0.36
2042,2.76,0.76,10.15, -0.06,0.02,-0.77
2043,2.63,0.82,10.47, -0.06,0.02,-1.13
2044,6.81,0.56,10.77, -0.02,0.20,-1.67
2045,7.33,-0.74,10.79, 0.35,1.22,-2.66
2046,2.47,-0.05,10.64, 0.69,1.72,-3.28
2047,-0.19,2.25,10.61, 0.64,1.38,-2.93
2048,0.51,2.56,10.86, 0.38,0.93,-2.63
2049,-1.30,3.38,10.56, 0.12,0.60,-2.44
2050,-3.67,1.47,10.39, 0.01,-0.15,-2.07
2051,-0.19,1.05,9.78, 0.05,-0.82,-2.04
2052,2.62,-0.22,10.38, 0.50,-0.41,-2.14
2053,2.53,4.12,10.67, 0.38,-0.55,-1.53
2054,2.43,5.06,11.48, -0.26,-0.23,-1.27
2055,3.91,-0.38,11.32, -0.03,-0.23,-1.32
2056,2.11,3.80,12.01, -0.21,-0.19,-1.04
2057,-0.32,2.38,11.99, -0.46,-0.29,-0.94
2058,-0.74,2.50,11.32, -0.32,-0.65,-1.11
2059,1.67,2.65,10.84, -0.26,-0.65,-0.94
2060,1.27,3.15,10.34, -0.22,-0.67,-0.69
2061,0.16,1.90,9.50, -0.07,-0.72,-0.96
2062,0.77,3.88,9.25, -0.16,-0.91,-0.96
2063,1.57,2.61,9.82, -0.25,-1.00,-1.01
2064,2.35,3.10,9.67, -0.32,-1.07,-0.38
2065,1.13,2.20,8.88, -0.49,-1.00,0.14
2066,2.74,0.52,9.10, -0.37,-0.89,-0.31
2067,3.41,1.47,9.58, -0.24,-0.65,-0.41
2068,3.29,1.68,9.92, -0.26,-0.40,0.13
2069,3.58,3.03,10.13, -0.32,-0.05,0.53
2070,3.04,1.89,10.23, -0.42,0.16,0.55
2071,3.15,2.53,11.24, -0.43,0.37,0.10
2072,1.99,1.93,11.57, -0.49,0.40,-0.69
2073,3.49,2.07,10.76, -0.39,0.33,-0.45
2074,1.92,1.43,11.64, -0.42,0.31,-0.46
2075,2.54,0.85,11.20, -0.66,0.46,-0.94
2076,0.68,0.21,11.28, -0.70,0.44,-1.22
2077,2.70,0.02,11.83, -0.47,0.26,-1.00
2078,2.70,0.82,11.31, -0.55,0.16,-1.09
2079,0.72,0.13,11.00, -0.43,-0.15,-0.58
2080,1.91,0.26,11.14, -0.26,-0.22,-0.27
2081,1.46,0.88,10.94, -0.26,0.11,-0.14
2082,1.55,-0.55,10.24, -0.25,0.10,-0.06
2083,2.29,0.57,11.80, -0.03,0.39,-0.64
2084,1.69,0.52,12.43, 0.40,0.15,-1.18
2085,1.12,-0.20,11.52, 0.48,-0.18,-0.94
2086,2.11,1.23,11.95, 0.33,-0.24,-0.62
2087,1.98,1.22,13.09, -0.08,-0.13,-0.88
2088,1.45,1.69,13.27, -0.46,-0.24,-1.15
2089,2.66,2.01,13.65, -0.64,-0.22,-1.43
2090,3.01,1.65,13.26, -0.66,-0.21,-1.84
2091,3.05,2.37,13.29, -0.91,-0.37,-1.98
2092,2.74,3.48,13.46, -1.50,-0.78,-1.48
2093,2.89,2.68,13.22, -1.73,-1.02,-1.47
2094,3.72,2.48,13.01, -1.80,-1.11,-1.46
2095,4.23,1.59,12.44, -1.63,-1.06,-1.63
2096,4.14,1.90,12.05, -1.51,-1.13,-1.85
2097,4.02,2.11,11.12, -1.40,-1.27,-1.78
2098,3.90,1.84,10.77, -1.36,-1.48,-1.59
2099,4.42,1.22,10.00, -1.27,-1.63,-1.63
2100,4.13,0.91,8.88, -1.12,-1.72,-1.76
2101,3.98,0.85,7.89, -1.06,-1.58,-1.76
2102,3.88,0.54,8.76, -1.13,-1.30,-1.88
2103,4.22,0.15,8.98, -1.15,-1.08,-2.05
2104,3.28,-1.07,8.02, -1.06,-1.28,-2.21
2105,3.41,0.66,7.61, -1.21,-1.64,-1.72
2106,4.92,-0.05,6.97, -1.24,-1.34,-1.48
2107,4.17,0.57,7.58, -1.06,-0.79,-1.53
2108,3.80,-0.53,7.80, -0.89,-0.66,-1.52
2109,3.90,-0.78,6.97, -0.51,-0.82,-1.52
2110,4.47,-0.66,6.07, -0.29,-0.96,-1.29
2111,3.74,-0.03,5.50, -0.22,-0.88,-1.16
2112,4.18,0.64,5.80, -0.44,-0.61,-1.22
2113,4.38,0.85,5.89, -0.63,-0.35,-1.16
2114,5.75,0.13,6.84, -0.59,-0.18,-1.05
2115,5.69,0.56,7.03, -0.49,-0.14,-0.93
2116,5.88,0.16,6.71, -0.19,-0.21,-0.86
2117,5.92,0.75,6.47, 0.06,-0.33,-0.69
2118,6.14,0.91,6.04, 0.28,-0.30,-0.64
2119,6.26,1.56,5.65, 0.30,-0.17,-0.51
2120,6.32,1.58,5.81, 0.10,0.02,-0.48
2121,6.21,2.00,5.96, -0.23,0.03,-0.44
2122,6.99,1.52,6.38, -0.52,0.06,-0.40
2123,7.38,1.29,6.92, -0.62,0.14,-0.33
2124,7.35,1.19,7.13, -0.56,0.34,-0.33
2125,7.12,1.16,7.43, -0.53,0.48,-0.27
2126,6.79,1.57,8.07, -0.61,0.48,-0.20
2127,6.67,1.49,8.19, -0.73,0.42,-0.15
2128,6.35,0.86,8.26, -0.69,0.27,-0.05
2129,6.56,0.11,8.38, -0.44,0.25,-0.15
2130,5.86,0.95,8.20, -0.27,0.24,-0.18
2131,5.72,0.97,8.23, -0.26,0.15,-0.09
2132,5.73,0.94,8.03, -0.28,0.09,0.01
2133,6.29,0.73,8.11, -0.22,0.23,0.04
2134,6.61,0.54,8.29, -0.09,0.48,0.11
2135,6.69,0.22,8.48, 0.05,0.71,0.05
2136,5.98,0.96,8.82, -0.01,0.74,-0.01
2137,5.70,1.39,9.26, -0.25,0.60,-0.07
2138,5.86,0.50,9.23, -0.37,0.53,-0.12
2139,5.60,0.96,9.39, -0.44,0.48,-0.05
2140,5.76,0.64,9.41, -0.40,0.47,-0.05
2141,5.46,1.03,9.49, -0.30,0.47,-0.10
2142,5.41,0.92,9.34, -0.26,0.41,-0.03
2143,5.23,0.45,9.43, -0.15,0.36,-0.03
2144,4.99,0.84,9.35, -0.05,0.29,-0.00
2145,4.86,0.97,9.17, -0.05,0.19,0.05
2146,4.86,0.90,8.99, -0.03,0.19,0.09
2147,4.82,0.89,9.28, -0.12,0.20,0.10
2148,4.90,0.84,9.43, -0.15,0.17,0.10
2149,5.19,0.39,9.59, -0.15,0.19,0.10
2150,4.88,0.57,9.45, -0.12,0.20,0.16
2151,4.95,0.30,9.25, -0.05,0.22,0.15
2152,4.78,0.50,9.52, -0.05,0.30,0.14
2153,4.61,0.41,9.52, -0.11,0.30,0.12
2154,4.73,0.24,9.67, -0.16,0.29,0.07
2155,4.44,0.49,9.70, -0.22,0.27,0.06
2156,4.24,0.29,9.69, -0.25,0.23,0.13
2157,4.31,-0.09,10.01, -0.21,0.28,0.16
2158,4.09,-0.12,10.34, -0.22,0.31,0.10
2159,3.85,-0.27,10.07, -0.20,0.23,0.06
2160,3.60,0.01,10.06, -0.14,0.13,0.04
2161,3.71,-0.47,9.71, -0.06,0.05,0.04
2162,3.55,-0.04,9.60, -0.05,-0.02,0.06
2163,3.69,-0.17,9.28, -0.04,-0.01,0.01
2164,3.70,0.51,8.70, -0.10,0.02,0.21
2165,4.68,-0.59,8.74, -0.01,0.19,0.32
2166,5.17,-0.50,9.47, 0.03,0.47,0.20
2167,3.73,-0.12,9.76, -0.08,0.55,0.12
2168,3.30,-0.70,10.38, -0.33,0.31,0.18
2169,2.62,-0.24,10.67, -0.49,0.01,0.12
2170,3.31,-0.60,10.38, -0.42,-0.11,0.13
2171,3.71,-0.69,9.92, -0.10,0.02,0.19
2172,3.89,-0.36,9.55, 0.25,0.24,0.29
2173,3.92,-0.02,9.38, 0.37,0.41,0.36
2174,3.78,0.22,9.53, 0.17,0.44,0.37
2175,3.90,0.12,10.01, -0.22,0.39,0.31
2176,3.87,-0.36,10.65, -0.37,0.33,0.18
2177,3.70,-0.01,10.89, -0.48,0.24,0.08
2178,3.51,0.12,10.85, -0.51,0.14,0.04
2179,3.37,0.19,10.70, -0.43,0.07,-0.01
2180,3.11,0.46,10.94, -0.32,0.05,0.04
2181,3.47,-0.02,11.15, -0.18,0.05,0.10
2182,3.37,0.11,10.84, 0.03,0.08,0.16
2183,3.42,0.06,10.96, 0.16,0.07,0.23
2184,3.34,0.07,10.79, 0.15,-0.01,0.20
2185,3.55,0.11,10.47, 0.14,-0.07,0.17
2186,3.45,0.67,10.49, 0.05,-0.08,0.19
2187,3.62,0.36,10.37, -0.02,-0.08,0.21
2188,4.07,0.13,10.35, 0.04,0.04,0.18
2189,3.86,0.39,10.46, 0.07,0.07,0.21
2190,3.73,0.30,10.60, 0.07,-0.01,0.21
2191,3.50,0.45,10.33, 0.03,-0.14,0.22
2192,3.59,0.12,10.46, 0.00,-0.18,0.21
2193,3.54,-0.05,10.24, 0.01,-0.16,0.17
2194,3.50,-0.05,9.99, 0.07,-0.15,0.18
2195,3.46,-0.08,9.73, 0.17,-0.12,0.22
2196,3.46,0.14,9.71, 0.14,-0.14,0.26
2197,3.53,0.04,9.34, 0.11,-0.10,0.28
2198,3.61,-0.12,9.55, 0.07,-0.02,0.25
2199,3.70,-0.40,9.80, 0.01,0.07,0.20
2200,3.48,-0.17,10.10, -0.07,0.04,0.19
2201,3.72,-0.64,10.49, -0.07,-0.02,0.12
2202,3.54,-0.43,10.65, -0.15,-0.11,0.09
2203,3.47,-0.41,10.63, -0.21,-0.20,0.10
2204,3.70,-0.68,10.71, -0.15,-0.18,0.07
2205,3.40,-0.42,10.39, -0.08,-0.16,0.06
2206,3.40,-0.49,10.32, -0.03,-0.20,0.09
2207,3.32,-0.25,10.23, -0.01,-0.22,0.10
2208,3.51,-0.35,9.87, -0.01,-0.23,0.09
2209,3.38,-0.32,9.71, -0.09,-0.25,0.15
2210,3.81,-0.61,9.69, -0.17,-0.21,0.17
2211,3.92,-0.74,10.00, -0.16,-0.11,0.16
2212,3.98,-0.83,10.05, -0.11,-0.09,0.13
2213,4.02,-1.05,10.20, -0.06,-0.20,0.09
2214,4.01,-0.88,10.18, -0.07,-0.28,0.10
2215,4.26,-1.21,10.09, -0.06,-0.30,0.08
2216,4.23,-1.09,9.99, -0.05,-0.26,0.06
2217,4.06,-0.98,10.00, -0.08,-0.24,0.04
2218,3.95,-0.91,9.95, -0.09,-0.25,0.02
2219,3.89,-0.94,9.89, -0.11,-0.29,0.03
2220,4.17,-1.03,9.99, -0.10,-0.27,-0.00
2221,4.33,-0.92,9.89, -0.06,-0.27,0.02
2222,4.41,-1.01,10.04, -0.02,-0.29,-0.00
2223,4.59,-1.15,9.87, 0.01,-0.30,-0.04
2224,4.57,-1.21,9.69, 0.06,-0.31,-0.06
2225,4.71,-1.12,9.45, 0.02,-0.32,-0.06
2226,4.94,-1.21,9.54, -0.02,-0.29,-0.11
2227,4.96,-0.93,9.55, -0.05,-0.30,-0.16
2228,4.85,-0.41,9.91, -0.09,-0.40,-0.21
2229,4.86,-0.87,9.94, -0.04,-0.50,-0.22
2230,5.00,-0.26,10.46, 0.03,-0.55,-0.20
2231,5.41,-0.67,10.22, 0.14,-0.56,-0.27
2232,5.15,0.02,9.94, 0.16,-0.59,-0.27
2233,5.62,-0.47,9.62, 0.20,-0.69,-0.29
2234,5.33,0.15,9.27, 0.22,-0.76,-0.33
2235,5.55,0.09,8.79, 0.13,-0.79,-0.28
2236,5.35,0.24,8.37, 0.01,-0.75,-0.27
2237,5.37,0.05,8.23, -0.01,-0.68,-0.19
2238,5.63,-0.03,7.88, 0.01,-0.48,-0.19
2239,5.78,0.08,7.85, 0.02,-0.19,-0.17
2240,5.71,0.22,8.08, 0.01,-0.03,-0.15
2241,5.77,0.14,8.04, -0.04,-0.09,-0.06
2242,5.88,-0.16,7.98, -0.03,-0.23,0.06
2243,5.94,-0.26,7.80, 0.04,-0.29,0.06
2244,6.12,-0.34,7.55, 0.01,-0.20,0.02
2245,6.42,-0.36,7.69, -0.11,-0.08,-0.02
2246,6.33,-0.38,7.99, -0.10,-0.04,-0.07
2247,6.50,-0.31,8.18, -0.06,-0.12,-0.05
2248,6.38,-0.06,8.17, 0.05,-0.19,-0.07
2249,6.31,-0.11,8.20, 0.14,-0.27,-0.01
2250,6.22,0.08,8.01, 0.22,-0.23,-0.03
2251,6.17,0.25,7.95, 0.23,-0.17,-0.05
2252,6.51,0.45,7.75, 0.15,-0.06,-0.08
2253,6.70,0.46,7.48, 0.00,0.01,-0.07
2254,6.61,0.41,7.92, -0.18,0.06,-0.09
2255,6.54,0.45,8.27, -0.34,0.11,-0.17
2256,6.47,0.02,8.54, -0.42,0.01,-0.15
2257,6.23,-0.08,8.71, -0.32,-0.06,-0.20
2258,6.11,-0.04,8.53, -0.22,-0.13,-0.19
2259,6.07,-0.11,8.43, -0.08,-0.16,-0.16
2260,5.95,0.15,8.09, -0.02,-0.17,-0.06
2261,6.66,-0.11,8.17, 0.06,-0.04,-0.07
2262,6.70,0.34,8.23, 0.07,0.05,-0.07
2263,6.98,0.45,8.71, 0.06,0.01,-0.06
2264,7.16,0.58,8.91, 0.06,-0.04,-0.07
2265,7.56,0.59,9.03, 0.15,-0.05,-0.16
2266,7.01,1.35,8.90, 0.10,-0.11,-0.24
2267,7.13,1.46,8.80, -0.02,-0.23,-0.33
2268,6.71,1.96,8.58, -0.15,-0.35,-0.39
2269,6.62,2.14,9.66, -0.24,-0.51,-0.39
2270,6.66,1.91,9.44, -0.10,-0.70,-0.51
2271,6.53,2.21,9.10, 0.06,-0.90,-0.39
2272,7.12,2.09,8.75, 0.22,-0.82,-0.33
2273,7.40,2.32,8.55, 0.30,-0.67,-0.37
2274,8.08,2.68,8.81, 0.30,-0.74,-0.36
2275,8.45,2.73,9.03, 0.26,-1.06,-0.54
2276,8.63,2.75,8.62, 0.35,-1.52,-0.59
2277,8.94,2.54,7.73, 0.46,-1.77,-0.71
2278,8.09,4.13,6.46, 0.35,-1.75,-0.69
2279,8.22,4.15,6.42, 0.17,-1.57,-0.70
2280,8.87,4.00,6.33, 0.26,-1.56,-0.72
2281,8.62,3.44,6.27, 0.50,-1.79,-0.64
2282,8.42,3.51,6.35, 0.53,-2.05,-0.81
2283,8.17,3.64,5.28, 0.43,-2.32,-0.92
2284,8.77,3.67,4.16, 0.43,-2.37,-0.92
2285,8.95,4.79,3.60, 0.43,-2.32,-1.44
2286,9.64,4.00,2.60, 0.88,-2.55,-1.50
2287,7.81,4.48,-0.96, 1.29,-2.99,-0.89
2288,7.98,4.19,-1.47, 1.66,-3.38,-0.36
2289,7.23,4.67,-4.96, 1.62,-3.25,-0.32
2290,7.49,3.20,-6.21, 1.81,-2.72,-0.03
2291,7.89,3.62,-6.23, 1.72,-1.69,0.03
2292,4.86,4.25,-4.95, 1.59,-1.19,0.37
2293,6.04,2.80,-1.85, 1.32,-0.62,0.43
2294,7.13,1.59,-1.67, 1.42,0.30,0.61
2295,6.97,1.59,-2.02, 1.60,1.33,0.22
2296,6.23,1.13,-2.31, 1.48,2.34,0.09
2297,6.32,1.75,-1.29, 1.24,3.50,-0.39
2298,5.02,1.92,-0.55, 0.57,4.74,-0.46
2299,8.00,-10.21,0.09, 1.39,3.26,3.61
2300,9.66,11.12,2.17, -0.43,4.88,-3.61
2301,8.96,-1.58,2.47, -1.12,4.46,1.20
2302,10.42,5.89,4.60, -2.25,5.15,-0.35
2303,12.53,2.82,5.36, -3.00,5.55,2.01
2304,4.98,-0.79,8.58, -2.59,7.24,2.56
2305,5.24,-0.08,4.45, -1.47,6.40,1.30
2306,4.94,4.26,6.07, -1.47,5.82,2.11
2307,1.64,2.28,5.35, -1.61,5.48,1.14
2308,6.79,-5.56,20.72, 1.35,1.37,2.51
2309,1.67,0.85,5.79, 1.60,-0.47,-0.65
2310,3.44,15.45,8.32, 0.59,-1.39,-1.09
2311,7.65,-1.55,11.58, 0.41,-0.89,-0.91
2312,3.42,-2.30,11.34, -0.13,-0.57,-0.18
2313,4.07,1.93,11.59, -0.84,-0.05,0.01
2314,5.26,1.29,5.65, -1.28,-0.05,0.85
2315,6.26,0.91,1.02, -1.62,-0.20,0.78
2316,4.86,-1.79,1.73, -1.70,-1.34,1.22
2317,8.07,-0.60,7.37, -2.09,-3.46,1.42
2318,3.89,-7.16,0.43, -1.70,1.54,0.24
2319,-11.73,-7.61,23.28, -2.45,0.55,0.65
2320,10.64,-6.81,20.97, -1.72,1.49,-0.45
2321,9.93,-3.05,11.95, -1.28,2.12,0.47
2322,9.01,-2.60,9.38, -1.04,2.77,0.57
2323,4.69,-1.08,7.35, -1.04,2.92,1.08
2324,4.54,-2.52,8.04, -1.03,3.17,1.94
2325,-6.25,-4.68,7.51, -0.13,2.02,1.64
2326,5.56,-3.23,11.97, -1.49,2.24,-1.17
2327,-3.71,-4.92,10.28, -1.26,2.08,0.62
2328,3.92,-5.05,11.90, -1.75,1.79,0.97
2329,-1.75,-2.67,9.19, -1.51,1.61,1.48
2330,-2.08,-4.75,9.81, -1.59,1.25,0.28
2331,-0.82,-4.22,9.53, -1.61,0.80,-0.11
2332,-1.25,-3.51,8.44, -1.74,0.40,-0.92
2333,-1.09,-4.64,9.45, -1.86,-0.01,-1.62
2334,-0.96,-3.57,8.81, -2.18,-0.44,-2.23
2335,-0.72,-3.26,8.54, -2.71,-0.88,-3.01
2336,11.11,-28.26,4.22, -1.30,-0.68,-5.21
2337,0.67,-10.98,7.05, 2.08,0.50,-0.43
2338,0.26,0.05,12.13, 0.76,-0.14,-1.02
2339,0.12,-4.38,11.93, -0.42,-0.77,-1.39
2340,9.70,-12.20,8.11, -0.80,-0.47,-1.51
2341,3.68,-9.83,8.60, 0.42,0.23,0.73
2342,0.68,-3.23,9.67, -0.18,0.09,0.55
2343,2.45,-8.93,8.19, -0.41,0.43,0.21
2344,1.24,-7.26,7.46, 0.09,0.57,0.62
2345,1.31,-3.84,7.53, -0.07,0.54,0.47
2346,1.38,-6.20,7.33, -0.22,0.46,0.32
2347,0.48,-5.83,7.92, -0.17,0.39,0.37
2348,0.68,-6.43,8.86, -0.41,0.19,0.14
2349,0.82,-7.20,8.98, -0.49,0.02,0.09
2350,1.44,-5.82,9.15, -0.76,-0.07,0.01
2351,1.26,-7.22,8.48, -0.88,-0.15,-0.02
2352,1.62,-5.90,7.98, -0.96,-0.09,0.05
2353,1.75,-7.16,7.13, -0.82,-0.11,-0.03
2354,0.66,-6.55,6.75, -0.53,-0.08,0.01
2355,1.04,-6.45,6.05, -0.22,-0.10,-0.10
2356,0.77,-5.58,5.76, 0.07,-0.14,-0.17
2357,0.46,-4.98,5.37, 0.26,-0.21,-0.29
2358,0.44,-4.90,5.31, 0.45,-0.28,-0.40
2359,0.52,-4.35,4.95, 0.61,-0.31,-0.50
2360,0.64,-3.77,4.30, 0.77,-0.32,-0.48
2361,0.41,-2.89,3.65, 0.88,-0.33,-0.47
2362,0.37,-2.10,3.47, 0.91,-0.34,-0.54
2363,0.65,-2.33,3.95, 0.86,-0.33,-0.63
2364,1.02,-3.15,4.78, 0.82,-0.29,-0.60
2365,1.33,-3.42,6.07, 0.68,-0.23,-0.60
2366,1.26,-3.64,6.90, 0.38,-0.09,-0.25
2367,2.81,-4.04,7.95, 0.03,-0.02,-0.15
2368,2.10,-4.89,8.80, -0.48,0.16,0.17
2369,3.25,-5.55,8.96, -0.86,0.38,0.47
2370,2.29,-5.27,8.54, -1.12,0.55,0.74
2371,2.45,-6.00,8.66, -1.39,0.74,0.95
2372,2.01,-7.31,8.78, -1.47,0.85,1.02
2373,1.49,-8.52,8.57, -1.32,0.89,1.06
2374,0.42,-8.91,8.53, -0.99,0.75,0.90
2375,-0.66,-8.67,8.67, -0.67,0.45,0.67
2376,-0.60,-9.58,8.29, -0.27,0.01,0.45
2377,-0.66,-8.50,8.21, 0.12,-0.37,0.13
2378,-0.30,-8.48,7.86, 0.42,-0.65,-0.30
2379,-0.11,-8.50,8.00, 0.77,-0.85,-0.70
2380,0.14,-8.44,8.56, 1.00,-0.95,-1.27
2381,1.18,-7.80,8.89, 1.12,-0.88,-1.65
2382,1.66,-6.68,8.29, 1.11,-0.75,-1.90
2383,2.11,-5.61,8.39, 0.96,-0.58,-2.21
2384,4.70,-6.16,9.62, 0.62,-0.36,-0.95
2385,4.43,-5.70,10.22, 0.19,0.09,0.26
2386,3.75,-7.85,9.96, -0.06,0.42,0.27
2387,2.45,-5.66,9.48, -0.26,0.69,0.69
2388,2.63,-6.65,9.39, -0.61,0.81,0.81
2389,1.70,-7.22,9.82, -0.77,0.81,0.90
2390,1.54,-8.31,10.56, -0.94,0.71,0.76
2391,0.86,-8.61,10.04, -0.95,0.54,0.54
2392,-0.14,-8.62,8.71, -0.82,0.08,0.47
2393,0.58,-7.73,7.74, -0.59,-0.09,0.04
2394,0.90,-7.30,7.70, -0.35,-0.24,-0.39
2395,2.26,-6.66,4.73, 0.02,-0.19,-0.32
2396,-0.42,0.91,1.44, 0.46,-0.15,0.71
2397,0.20,-1.62,7.02, -0.42,-0.34,-0.96
2398,0.61,-11.35,9.08, -0.04,-0.20,-1.05
2399,4.15,-10.87,11.44, 0.49,-0.21,-0.46
2400,0.61,-11.81,13.35, 0.32,-0.16,-0.40
2401,3.97,-13.35,11.76, 0.70,-0.03,-0.37
2402,1.92,-9.09,10.24, 1.10,0.01,-0.08
2403,3.49,-6.42,8.31, 1.02,0.11,-0.40
2404,2.22,-3.02,6.17, 0.88,0.50,0.59
2405,-0.43,-0.91,4.40, 0.50,0.34,0.44
2406,0.26,-3.29,4.13, 0.29,0.20,0.06
2407,-0.44,-2.63,4.30, 0.38,0.23,0.02
2408,0.12,-2.14,5.54, 0.05,0.08,-0.21
2409,0.71,-3.98,5.86, -0.11,-0.03,-0.21
2410,0.36,-4.54,6.36, -0.17,-0.20,-0.28
2411,0.86,-3.44,7.67, -0.47,-0.26,-0.60
2412,2.61,-3.56,7.70, -0.99,-0.45,-0.37
2413,0.95,-4.89,7.19, -1.32,-0.32,-0.10
2414,1.76,-3.33,5.48, -1.37,-0.22,-0.03
2415,1.41,-2.93,4.55, -1.54,-0.07,0.11
2416,2.07,-4.45,6.56, -1.60,0.04,0.18
2417,2.66,-7.97,8.77, -1.60,0.30,0.24
2418,4.29,-10.59,8.90, -1.21,0.63,0.60
2419,1.79,-7.07,9.71, -1.08,0.92,1.14
2420,1.41,-10.85,9.20, -0.89,0.79,0.70
2421,1.88,-13.74,9.35, 0.05,0.80,0.69
2422,1.34,-12.19,9.99, 0.98,0.83,0.45
2423,0.45,-13.63,9.48, 1.70,0.69,0.21
2424,-2.07,-11.78,9.08, 2.56,0.06,0.32
2425,-2.46,-7.44,9.28, 2.67,-0.42,-0.44
2426,-1.09,-6.28,8.02, 2.32,-0.83,-1.62
2427,0.65,-4.50,8.63, 2.01,-1.13,-2.15
2428,1.60,-3.33,10.98, 1.07,-1.23,-3.04
2429,4.34,-6.49,13.89, -0.26,-1.28,-2.24
2430,4.93,-2.05,12.53, -1.32,-1.09,0.05
2431,6.90,-5.23,11.42, -2.47,-0.60,1.35
2432,5.80,-12.39,10.64, -2.76,0.65,0.63
2433,4.66,-9.06,10.89, -2.44,1.18,1.26
2434,4.76,-10.86,11.16, -2.47,1.58,0.88
2435,-5.65,-17.86,9.95, -1.44,1.15,1.04
2436,3.86,-16.23,11.48, 0.07,1.09,1.22
2437,2.70,-12.40,10.27, 0.84,0.52,0.68
2438,-1.08,-8.89,10.78, 1.43,0.26,0.18
2439,-0.64,-5.59,7.48, 1.60,0.00,-0.49
2440,1.82,-5.62,6.51, 1.48,-0.17,-0.94
2441,0.60,-4.32,5.74, 1.38,-0.39,-0.91
2442,-0.89,-1.48,1.51, 1.55,-0.31,-0.62
2443,1.19,-1.91,4.82, 0.76,-0.42,-1.63
2444,1.36,-4.51,7.40, 0.46,-0.17,-1.75
2445,0.77,-0.24,4.13, -0.43,0.20,0.23
2446,2.07,-1.78,2.70, -0.50,0.22,0.66
2447,-0.09,-0.28,2.70, -0.52,0.22,0.81
2448,-0.01,-1.37,2.02, -0.60,0.29,0.57
2449,0.01,-0.68,1.54, -0.51,0.34,0.59
2450,0.23,-0.41,1.32, -0.50,0.31,0.52
2451,-0.16,-0.19,1.20, -0.44,0.29,0.49
2452,-0.45,-0.05,1.12, -0.43,0.29,0.38
2453,-0.03,-0.40,1.30, -0.39,0.30,0.30
2454,-0.13,-0.75,2.15, -0.38,0.28,0.19
2455,-0.43,-2.74,3.34, -0.37,0.22,-0.12
2456,-0.01,-2.65,4.01, -0.23,0.14,-0.16
2457,0.42,-6.52,5.75, -0.15,0.04,-0.52
2458,-0.34,-6.36,6.34, 0.25,-0.18,-0.32
2459,-1.19,-3.85,8.09, -0.08,-0.58,-0.90
2460,1.97,-5.80,9.78, -0.42,-0.64,-1.65
2461,2.15,-10.30,11.50, -0.72,-0.64,-2.46
2462,3.25,-9.29,14.23, -0.67,-0.61,-2.63
2463,7.13,-3.70,9.19, -1.11,-0.05,0.84
2464,5.32,-3.25,10.20, -1.89,0.49,1.22
2465,5.67,-7.84,5.61, -2.12,0.97,1.43
2466,2.10,-12.43,9.89, -1.28,1.63,1.96
2467,-0.83,-6.37,9.57, -1.13,1.28,1.33
2468,1.26,-15.16,8.41, -0.46,1.15,0.35
2469,-0.39,-15.01,7.45, 1.38,0.54,1.83
2470,-4.04,-6.89,10.01, 1.68,-0.07,0.80
2471,-2.30,-13.83,8.77, 1.90,-0.27,-0.32
2472,-0.28,-11.95,7.96, 2.95,-0.45,0.08
2473,-2.56,-2.84,10.15, 2.41,-1.01,-0.99
2474,0.25,-5.27,10.74, 1.10,-1.33,-2.97
2475,1.29,-8.18,11.23, 0.71,-1.15,-2.99
2476,0.73,-4.87,11.17, -0.07,-0.80,-3.87
2477,3.43,-7.35,17.20, -1.14,-0.81,-4.89
2478,8.61,-5.57,13.19, -2.27,-0.01,-1.39
2479,8.71,-10.55,14.58, -2.75,0.81,0.07
2480,7.58,-9.69,14.62, -2.78,0.90,2.29
2481,8.54,-14.59,12.86, -2.26,1.36,4.31
2482,-4.18,-20.53,7.79, -1.26,0.28,5.89
2483,-3.68,-17.80,10.33, 0.28,0.65,5.24
2484,-0.34,-14.16,14.05, 1.47,0.06,4.52
2485,3.78,-8.49,7.86, 1.40,-0.14,4.01
2486,1.79,-5.77,7.72, 1.64,-0.14,5.24
2487,-1.30,-4.79,6.87, 1.23,-0.22,5.26
2488,-5.07,-3.51,5.34, 0.60,-0.58,4.65
2489,-8.17,-10.36,1.41, 0.54,-0.35,6.65
2490,10.17,-8.50,15.28, 1.03,0.92,7.01
2491,-18.03,-0.96,8.42, 1.47,0.09,7.69
2492,4.03,-0.11,12.22, 1.80,0.77,8.73
2493,-6.38,7.24,9.36, 0.94,0.56,5.11
2494,-0.69,-0.08,2.17, 0.89,0.89,4.56
2495,1.01,0.39,2.25, 0.97,1.58,3.42
2496,-2.06,2.10,1.82, 1.03,1.62,3.24
2497,-2.31,2.26,0.73, 0.28,0.51,2.39
2498,0.26,-0.23,0.84, 0.36,0.45,2.66
2499,4.29,-1.61,4.19, 0.64,0.76,1.83
2500,1.52,0.03,1.08, 0.69,0.87,1.29
2501,-0.52,0.43,0.69, 0.71,0.79,1.26
2502,0.13,0.35,0.84, 0.72,0.79,1.29
2503,-0.22,0.41,0.81, 0.72,0.75,1.26
2504,0.00,0.33,0.83, 0.72,0.73,1.23
2505,-0.18,0.34,0.76, 0.72,0.71,1.20
2506,-1.57,1.48,0.73, 0.82,1.47,-0.87
2507,-0.16,1.78,5.14, 1.14,1.52,-0.96
2508,-21.27,25.52,3.86, 0.30,0.98,-1.70
2509,-4.26,0.76,6.42, -1.99,-1.83,-5.15
2510,-0.08,1.38,10.36, -0.91,-0.31,-5.18
2511,-24.84,4.92,8.71, -1.33,-3.65,-5.98
2512,-1.91,-0.88,10.94, -0.73,-1.66,-5.23
2513,-5.08,-1.10,7.67, -0.70,-1.44,-2.03
2514,-7.14,1.21,8.22, -0.56,-0.27,-0.16
2515,-9.46,-1.84,7.59, -0.16,0.24,1.57
2516,-6.05,-0.79,8.13, 0.68,0.85,3.55
2517,-11.25,7.79,8.67, 0.56,1.01,1.93
2518,-9.49,5.66,8.81, 0.62,0.54,0.86
2519,-12.66,6.35,7.11, 0.43,-0.29,-0.20
2520,-7.57,3.95,7.05, 0.39,-0.44,-1.32
2521,-9.19,3.12,6.15, 0.31,-0.55,-1.95
2522,-10.54,0.15,7.04, 0.62,-0.44,0.51
2523,-9.44,-0.19,7.74, 0.83,-0.35,2.67
2524,-8.42,5.79,8.12, 0.60,-0.13,2.00
2525,-9.76,5.91,6.70, 0.18,0.15,0.45
2526,-7.52,4.69,6.73, -0.03,0.50,-0.87
2527,-6.19,3.87,7.23, -0.20,0.61,-2.07
2528,-11.10,4.16,8.45, -0.35,0.55,-3.06
2529,-13.96,-0.22,7.91, -0.21,-0.08,-1.54
2530,-12.30,0.45,7.79, 0.25,-0.56,0.70
2531,-14.96,7.06,9.83, 0.33,-0.98,1.49
2532,-12.84,5.78,8.84, 0.07,-1.52,0.54
2533,-11.38,4.89,8.42, -0.13,-1.69,-0.35
2534,-9.75,4.01,8.95, -0.23,-1.51,-0.90
2535,-10.64,3.30,10.14, 0.06,-0.74,0.35
2536,-9.86,3.63,10.03, -0.09,0.03,-0.80
2537,-12.33,4.10,9.51, 0.10,0.73,-0.61
2538,-9.28,3.73,8.12, 0.30,1.00,-0.47
2539,-11.26,3.35,8.43, 0.40,1.10,-0.40
2540,-10.69,2.30,7.51, 0.53,1.07,-0.22
2541,-10.63,2.85,7.67, 0.58,0.75,-0.02
2542,-10.61,3.74,6.48, 0.60,0.13,0.29
2543,-7.23,2.14,6.11, 0.51,-0.18,0.28
2544,-7.18,2.94,5.52, 0.45,-0.34,0.29
2545,-6.51,2.75,5.36, 0.29,-0.51,0.14
2546,-5.45,2.32,4.41, 0.08,-0.62,-0.20
2547,-2.61,1.83,2.57, -0.08,-0.70,-0.27
2548,-1.57,1.00,1.95, -0.18,-0.68,-0.33
2549,-1.68,0.78,1.76, -0.23,-0.68,-0.38
2550,-1.24,0.76,1.59, -0.25,-0.71,-0.41
2551,-1.00,0.75,1.86, -0.28,-0.68,-0.53
2552,-1.56,1.17,2.26, -0.31,-0.56,-0.74
2553,-2.54,1.54,3.32, -0.33,-0.41,-1.00
2554,-3.30,1.46,3.96, -0.33,-0.21,-1.28
2555,-3.85,1.04,4.65, -0.26,-0.01,-1.43
2556,-4.87,1.07,4.80, -0.12,0.47,-1.29
2557,-3.99,0.62,4.06, 0.01,0.59,-0.78
2558,-5.49,1.08,4.48, 0.12,0.68,-0.72
2559,-5.52,0.69,5.87, 0.24,0.74,-0.62
2560,-6.60,0.57,6.08, 0.59,0.85,-0.12
2561,-8.31,1.17,6.87, 0.88,0.84,0.28
2562,-9.39,1.33,7.81, 1.27,0.84,0.84
2563,-9.68,3.31,8.40, 1.39,0.96,0.94
2564,-11.64,4.30,8.10, 1.42,0.98,0.96
2565,-12.32,4.98,8.01, 1.04,0.72,0.49
2566,-12.50,5.01,7.46, 0.82,0.17,0.43
2567,-11.82,4.46,6.94, 0.42,-0.48,0.08
2568,-11.94,4.45,6.72, 0.04,-1.17,-0.17
2569,-11.11,3.90,6.86, -0.23,-1.66,-0.36
2570,-10.75,3.86,7.57, -0.43,-1.83,-0.62
2571,-10.02,3.35,7.77, -0.46,-1.75,-0.72
2572,-7.94,2.64,7.29, -0.43,-1.46,-0.81
2573,-6.09,1.91,6.65, -0.34,-1.03,-0.89
2574,-5.88,1.82,6.28, -0.17,-0.47,-0.85
2575,-5.62,1.37,5.95, -0.01,-0.07,-0.79
2576,-5.34,1.12,6.08, 0.21,0.40,-0.65
2577,-6.85,2.08,6.54, 0.33,0.77,-0.63
2578,-7.82,2.10,6.72, 0.43,1.02,-0.58
2579,-8.15,1.97,6.39, 0.51,1.07,-0.50
2580,-8.39,1.93,5.96, 0.64,0.95,-0.26
2581,-8.42,1.77,5.83, 0.73,0.67,-0.02
2582,-9.34,2.27,5.86, 0.79,0.27,0.23
2583,-9.52,2.51,6.22, 0.82,-0.16,0.45
2584,-8.54,2.41,6.51, 0.81,-0.44,0.54
2585,-8.16,2.85,6.36, 0.79,-0.53,0.52
2586,-7.74,2.91,6.14, 0.73,-0.61,0.45
2587,-6.55,2.55,5.94, 0.61,-0.59,0.25
2588,-7.49,3.31,6.19, 0.47,-0.50,-0.01
2589,-8.73,3.60,7.24, 0.30,-0.43,-0.30
2590,-9.26,3.74,7.45, 0.16,-0.38,-0.55
2591,-10.31,3.77,7.98, 0.05,-0.35,-0.75
2592,-11.04,4.20,8.15, -0.09,-0.41,-0.94
2593,-10.90,3.68,8.10, -0.20,-0.50,-1.08
2594,-10.07,2.83,7.77, -0.21,-0.54,-1.10
2595,-9.28,2.57,7.54, -0.08,-0.51,-0.93
2596,-8.66,1.87,7.18, 0.14,-0.42,-0.65
2597,-7.68,1.63,6.91, 0.28,-0.33,-0.50
2598,-7.18,1.61,6.86, 0.48,0.02,-0.34
2599,-8.24,1.99,7.30, 0.64,0.31,-0.25
2600,-8.39,2.43,7.39, 0.79,0.54,-0.13
2601,-8.97,2.39,7.36, 0.91,0.74,-0.01
2602,-11.05,3.16,7.93, 0.93,0.64,0.05
2603,-12.35,3.43,8.55, 0.97,0.41,0.19
2604,-12.65,4.52,9.01, 0.96,0.08,0.35
2605,-13.56,4.29,8.98, 0.89,-0.40,0.37
2606,-13.58,5.15,9.24, 0.68,-0.83,0.26
2607,-12.40,5.00,9.09, 0.42,-1.04,-0.06
2608,-11.78,4.72,9.07, 0.19,-1.03,-0.44
2609,-10.90,4.13,8.97, 0.05,-0.89,-0.72
2610,-9.68,3.59,8.44, -0.07,-0.60,-1.06
2611,-8.29,2.61,7.37, -0.11,-0.25,-1.27
2612,-6.84,1.93,6.28, -0.04,-0.02,-1.27
2613,-6.70,1.71,5.79, 0.06,0.14,-1.17
2614,-6.90,1.36,5.84, 0.20,0.20,-0.99
2615,-6.59,1.12,5.45, 0.41,0.19,-0.68
2616,-5.37,0.55,4.66, 0.63,0.20,-0.36
2617,-4.14,0.63,3.88, 0.83,0.25,-0.10
2618,-3.91,0.69,3.73, 1.01,0.29,0.14
2619,-4.19,1.05,3.69, 1.12,0.29,0.30
2620,-4.79,1.42,4.24, 1.20,0.29,0.42
2621,-5.85,2.09,4.85, 1.21,0.30,0.42
2622,-6.27,2.69,5.17, 1.10,0.29,0.25
2623,-6.53,2.92,5.18, 0.93,0.29,-0.02
2624,-7.34,3.19,5.56, 0.67,0.18,-0.38
2625,-7.91,3.43,5.79, 0.43,0.02,-0.68
2626,-8.15,3.45,5.82, 0.17,-0.19,-0.99
2627,-7.35,2.82,5.28, -0.03,-0.42,-1.20
2628,-5.99,2.16,4.65, -0.15,-0.59,-1.31
2629,-6.04,1.98,4.81, -0.15,-0.66,-1.30
2630,-6.99,2.07,5.36, -0.15,-0.75,-1.26
2631,-7.54,1.91,5.71, -0.09,-0.89,-1.13
2632,-6.43,1.45,5.39, 0.05,-0.93,-0.92
2633,-5.09,1.14,4.83, 0.21,-0.83,-0.72
2634,-4.68,1.06,4.77, 0.36,-0.63,-0.59
2635,-4.39,0.89,4.80, 0.54,-0.36,-0.43
2636,-4.26,0.91,4.72, 0.73,-0.05,-0.27
2637,-4.92,1.39,5.16, 0.91,0.33,-0.16
2638,-6.05,2.16,5.81, 0.97,0.66,-0.21
2639,-6.63,2.36,5.92, 0.97,0.92,-0.31
2640,-6.21,2.14,4.74, 0.96,1.01,-0.40
2641,-6.62,2.05,5.41, 0.93,1.03,-0.46
2642,-8.06,2.96,6.28, 0.88,0.88,-0.45
2643,-14.76,5.40,8.68, 0.67,0.40,-0.54
2644,-19.16,5.50,10.53, 0.46,-0.38,-0.58
2645,-17.75,3.89,12.98, 0.45,-1.37,-0.18
2646,-16.33,7.58,13.51, 0.36,-1.47,-0.19
2647,-15.73,3.16,13.48, 0.50,-1.19,-0.24
2648,-13.07,3.53,11.38, 0.77,-0.72,-0.02
2649,-13.12,4.62,10.05, 0.81,-0.73,0.08
2650,-10.50,3.85,8.54, 0.85,-0.60,0.10
2651,-8.96,3.09,7.61, 0.78,-0.50,-0.04
2652,-7.94,3.88,6.95, 0.69,-0.21,-0.29
2653,-7.55,2.87,6.37, 0.52,0.05,-0.71
2654,-6.83,2.49,5.83, 0.46,0.12,-0.82
2655,-6.68,1.90,5.44, 0.51,0.21,-0.76
2656,-6.10,2.21,5.52, 0.53,0.35,-0.79
2657,-6.40,2.47,5.14, 0.47,0.51,-0.96
2658,-5.26,1.78,4.41, 0.41,0.53,-1.06
2659,-4.71,1.37,4.21, 0.42,0.52,-1.05
2660,-4.19,1.21,3.59, 0.46,0.50,-0.98
2661,-4.92,1.24,3.54, 0.47,0.37,-0.90
2662,-5.14,1.52,3.36, 0.43,0.08,-0.83
2663,-4.29,1.25,3.00, 0.39,-0.23,-0.77
2664,-4.09,1.00,2.99, 0.38,-0.45,-0.68
2665,-4.75,1.42,3.09, 0.34,-0.68,-0.66
2666,-4.27,1.21,3.07, 0.34,-0.89,-0.56
2667,-4.25,1.49,3.10, 0.35,-0.99,-0.52
2668,-2.68,1.28,2.69, 0.33,-0.99,-0.50
2669,-2.22,0.99,2.57, 0.31,-0.92,-0.57
2670,-5.64,2.61,5.09, 0.24,-0.83,-0.83
2671,-8.62,2.42,8.07, 0.33,-0.48,-0.79
2672,-14.49,-1.10,12.55, 1.13,0.14,-0.09
2673,-17.82,2.37,14.62, 2.18,0.58,1.68
2674,-19.35,5.80,15.09, 2.48,1.00,1.76
2675,-17.51,8.41,12.45, 1.99,0.57,1.31
2676,-15.93,5.98,10.59, 1.60,0.38,0.70
2677,-13.43,7.19,8.17, 0.99,0.34,-0.29
2678,-11.67,6.73,8.59, 0.26,0.15,-1.30
2679,-12.19,4.71,8.12, -0.18,-0.18,-1.89
2680,-13.79,4.04,7.89, -0.35,-0.69,-2.04
2681,-10.12,1.72,7.18, -0.19,-1.08,-1.47
2682,-8.01,1.87,5.78, 0.07,-1.22,-1.04
2683,-6.37,1.36,4.49, 0.16,-1.35,-0.86
2684,-4.46,1.28,3.80, 0.22,-1.36,-0.81
2685,-3.24,1.12,3.13, 0.27,-1.37,-0.70
2686,-2.61,0.71,2.69, 0.31,-1.32,-0.63
2687,-1.76,0.85,2.43, 0.36,-1.20,-0.62
2688,-1.73,0.57,2.58, 0.43,-0.97,-0.63
2689,-1.71,0.74,2.89, 0.48,-0.72,-0.65
2690,-2.53,1.03,3.75, 0.54,-0.37,-0.70
2691,-4.06,1.79,4.73, 0.56,0.06,-0.89
2692,-4.40,1.38,5.49, 0.71,0.59,-0.83
2693,-5.11,1.08,5.51, 0.90,1.04,-0.72
2694,-5.45,0.85,5.46, 1.12,1.45,-0.56
2695,-5.89,0.87,6.02, 1.40,1.88,-0.30
2696,-7.14,1.84,5.60, 1.64,2.09,-0.01
2697,-7.84,2.53,5.24, 1.63,1.93,0.01
2698,-12.32,4.22,6.48, 1.43,1.31,-0.01
2699,-13.54,5.20,7.62, 1.01,0.34,-0.16
2700,-15.49,5.08,7.65, 0.63,-0.78,-0.21
2701,-14.62,4.84,9.10, 0.31,-1.97,-0.08
2702,-16.34,4.15,10.72, 0.20,-2.60,-0.05
2703,-13.28,4.05,11.55, 0.44,-2.06,0.16
2704,-9.79,2.58,9.50, 0.67,-1.31,0.17
2705,-8.84,3.22,8.55, 0.63,-0.77,-0.16
2706,-9.18,3.70,8.10, 0.50,-0.32,-0.57
2707,-8.11,3.07,7.49, 0.52,0.14,-0.71
2708,-7.42,2.57,7.06, 0.55,0.53,-0.85
2709,-7.55,2.26,7.09, 0.66,0.92,-0.82
2710,-6.29,1.50,6.58, 0.81,1.41,-0.81
2711,-6.91,1.55,5.65, 0.97,1.74,-0.72
2712,-7.22,1.73,4.98, 1.04,1.67,-0.57
2713,-6.57,1.70,4.20, 1.04,1.35,-0.42
2714,-5.67,1.72,3.46, 1.00,0.95,-0.31
2715,-6.05,1.85,3.50, 0.90,0.52,-0.26
2716,-6.44,1.88,3.60, 0.78,-0.03,-0.18
2717,-5.95,1.80,3.45, 0.67,-0.58,-0.10
2718,-5.28,1.73,3.10, 0.53,-1.06,-0.08
2719,-4.56,1.51,2.81, 0.44,-1.43,-0.03
2720,-3.96,1.63,2.83, 0.34,-1.69,-0.08
2721,-3.53,1.46,2.65, 0.25,-1.84,-0.15
2722,-4.34,1.64,3.32, 0.18,-1.85,-0.26
2723,-4.35,1.55,3.77, 0.17,-1.83,-0.31
2724,-4.48,1.73,4.12, 0.19,-1.67,-0.34
2725,-5.96,2.30,5.13, 0.21,-1.47,-0.39
2726,-6.93,2.65,6.02, 0.19,-1.20,-0.54
2727,-6.03,2.45,5.78, 0.21,-0.87,-0.59
2728,-4.86,1.77,4.58, 0.09,-0.56,-1.00
2729,-3.68,1.66,5.87, 0.23,0.24,-1.13
2730,-4.99,2.07,8.38, 0.44,1.18,-1.13
2731,-6.59,1.20,9.02, 0.82,2.17,-0.93
2732,-13.32,2.46,9.06, 1.18,2.52,-0.55
2733,-14.43,2.70,8.99, 1.56,2.22,0.16
2734,-13.83,4.37,7.28, 1.45,1.45,0.30
2735,-12.36,3.58,7.35, 1.39,0.79,0.54
2736,-10.89,3.27,7.09, 1.20,0.26,0.43
2737,-12.14,3.82,7.52, 1.10,-0.26,0.52
2738,-12.24,3.45,7.68, 0.97,-0.93,0.60
2739,-12.85,4.11,7.79, 0.78,-1.50,0.56
2740,-12.21,5.48,7.72, 0.37,-2.08,0.25
2741,-9.46,4.65,7.17, 0.02,-2.04,-0.37
2742,-6.94,3.43,6.53, -0.25,-1.61,-1.00
2743,-5.11,2.68,5.94, -0.28,-1.03,-1.30
2744,-4.67,1.54,6.00, -0.23,-0.38,-1.49
2745,-5.59,1.16,6.46, 0.01,0.19,-1.35
2746,-6.07,1.52,6.40, 0.24,0.70,-1.20
2747,-7.69,1.83,6.54, 0.41,1.03,-1.07
2748,-8.03,2.17,6.43, 0.50,1.12,-0.99
2749,-8.27,1.84,6.29, 0.64,1.12,-0.76
2750,-9.56,1.81,6.44, 0.81,0.93,-0.45
2751,-10.05,1.52,6.72, 1.05,0.55,0.05
2752,-10.07,1.97,6.59, 1.27,0.12,0.56
2753,-10.81,3.04,6.56, 1.32,-0.50,0.90
2754,-10.31,3.91,6.34, 1.11,-1.05,0.83
2755,-9.57,3.79,6.11, 0.82,-1.47,0.58
2756,-8.41,3.72,5.81, 0.52,-1.73,0.24
2757,-7.91,3.60,6.13, 0.26,-1.77,-0.15
2758,-6.93,3.15,5.96, 0.07,-1.58,-0.52
2759,-5.94,2.77,5.64, -0.02,-1.25,-0.81
2760,-5.37,2.79,5.31, -0.12,-0.91,-1.12
2761,-5.39,2.05,4.83, -0.24,-0.67,-1.40
2762,-4.54,1.67,4.43, -0.27,-0.44,-1.56
2763,-4.78,1.74,4.62, -0.27,-0.23,-1.65
2764,-6.63,2.13,5.79, -0.23,-0.14,-1.62
2765,-7.53,1.60,6.47, -0.09,-0.06,-1.46
2766,-8.38,1.11,7.30, 0.23,0.08,-1.03
2767,-10.41,1.80,7.77, 0.57,0.06,-0.51
2768,-10.24,1.76,7.61, 0.81,-0.18,-0.08
2769,-9.63,2.01,6.79, 1.02,-0.48,0.37
2770,-9.65,2.29,6.87, 1.18,-0.81,0.73
2771,-8.04,2.28,5.93, 1.23,-1.10,0.95
2772,-6.07,1.72,4.97, 1.26,-1.19,1.04
2773,-4.87,1.81,4.44, 1.24,-1.15,0.98
2774,-4.65,2.09,4.24, 1.12,-1.10,0.79
2775,-5.08,1.88,3.04, 0.97,-1.10,0.51
2776,-8.28,3.71,3.46, 0.76,-1.11,0.23
2777,-2.81,2.42,4.74, 0.46,-0.92,-0.24
2778,-3.49,2.82,6.02, 0.29,-0.22,-0.86
2779,-10.98,5.51,8.04, 0.00,0.35,-1.64
2780,-7.40,4.33,8.81, -0.52,0.55,-2.59
2781,-13.77,1.97,10.93, -0.27,1.24,-2.43
2782,-10.90,3.47,7.10, -0.23,1.01,-2.28
2783,-14.13,5.33,5.56, -0.19,0.64,-2.02
2784,-10.30,-0.91,7.31, 0.29,0.54,-1.43
2785,-10.47,2.66,8.94, 0.78,0.18,-0.35
2786,-15.22,3.63,10.41, 0.92,-0.18,-0.07
2787,-12.66,2.92,10.10, 1.09,-0.30,0.21
2788,-11.42,4.58,9.16, 1.02,-0.09,0.01
2789,-11.47,4.95,9.22, 0.79,0.10,-0.44
2790,-10.19,4.60,8.67, 0.53,0.45,-1.01
2791,-11.12,4.62,8.39, 0.21,0.60,-1.58
2792,-9.81,3.62,7.42, 0.02,0.54,-1.84
2793,-9.09,2.39,6.56, -0.00,0.42,-1.83
2794,-9.81,2.14,6.62, 0.07,0.12,-1.60
2795,-9.13,1.40,6.26, 0.26,-0.24,-1.19
2796,-7.49,0.58,5.29, 0.55,-0.52,-0.64
2797,-6.73,0.57,4.99, 0.87,-0.76,-0.08
2798,-6.37,0.49,4.87, 1.16,-0.95,0.41
2799,-6.01,0.54,4.86, 1.46,-1.05,0.89
2800,-5.59,0.66,4.78, 1.72,-1.04,1.27
2801,-4.78,1.16,4.31, 1.88,-0.97,1.47
2802,-4.24,1.34,4.12, 1.93,-0.85,1.50
2803,-3.89,1.58,3.87, 1.94,-0.69,1.44
2804,-4.36,2.66,4.42, 1.82,-0.43,1.19
2805,-5.05,2.99,4.16, 1.59,-0.30,0.74
2806,-2.68,2.32,4.84, 1.38,-0.10,0.35
2807,-3.15,2.56,3.27, 1.10,0.29,-0.23
2808,-5.78,2.88,2.84, 0.62,0.21,-0.49
2809,-6.25,5.37,2.71, -0.15,-0.20,-0.91
2810,-5.95,3.90,2.91, -0.69,-0.86,-1.20
2811,-7.04,4.05,4.10, -1.21,-1.87,-1.57
2812,-2.72,3.58,7.24, -1.01,-1.31,-2.63
2813,0.50,1.34,6.34, -0.40,0.71,-3.97
2814,-7.40,3.66,7.69, -0.18,0.67,-4.46
2815,-6.71,-0.70,8.12, 0.36,1.24,-1.60
2816,-7.98,0.95,9.45, 0.06,1.66,0.89
2817,-10.32,2.56,9.40, -0.08,1.50,3.50
2818,-10.65,6.06,6.00, -0.23,1.62,3.44
2819,-9.11,7.89,8.26, -0.54,1.66,2.78
2820,-11.67,8.74,10.13, -0.85,1.57,1.30
2821,-12.40,7.22,8.70, -1.23,1.43,0.42
2822,-11.90,6.13,8.25, -1.56,1.11,0.54
2823,-11.47,4.58,7.44, -1.77,0.68,1.35
2824,-9.83,3.89,7.20, -1.79,0.33,1.84
2825,-8.55,4.27,6.36, -1.83,0.06,2.03
2826,-7.98,4.01,5.73, -1.95,-0.15,2.09
2827,-8.78,4.17,5.87, -2.02,-0.42,2.08
2828,-8.67,4.39,5.73, -2.16,-0.71,1.96
2829,-7.52,3.86,5.18, -2.30,-0.92,1.78
2830,-6.46,3.27,4.37, -2.44,-1.07,1.54
2831,-5.55,2.69,4.52, -2.47,-1.10,1.26
2832,-5.46,2.58,4.28, -2.42,-1.05,1.08
2833,-4.85,2.13,4.67, -2.30,-0.84,0.89
2834,-4.27,1.40,4.18, -2.08,-0.73,0.90
2835,-3.93,1.46,3.92, -1.90,-0.65,0.73
2836,-3.91,1.62,4.66, -1.75,-0.45,0.44
2837,-6.34,1.94,5.05, -1.56,-0.52,0.34
2838,-5.56,2.13,5.07, -1.37,-0.59,0.19
2839,-5.22,1.66,5.45, -1.13,-0.49,0.01
2840,-5.23,0.81,5.79, -0.70,-0.34,0.04
2841,-4.12,0.28,5.73, -0.16,-0.05,0.15
2842,-2.62,0.90,5.22, 0.34,0.32,0.16
2843,-3.53,1.50,5.56, 0.65,0.67,0.03
2844,-5.67,2.90,6.14, 0.81,0.82,-0.14
2845,-6.52,4.05,6.22, 0.76,0.74,-0.40
2846,-6.58,4.57,6.73, 0.57,0.60,-0.66
2847,-5.36,4.22,7.13, 0.35,0.36,-0.70
2848,-3.20,2.68,7.37, 0.34,0.14,-0.39
2849,-0.05,0.65,7.90, 0.60,0.19,0.40
2850,-0.71,1.39,8.55, 1.10,0.60,0.57
2851,-3.81,11.19,8.65, 1.31,1.17,0.58
2852,-1.31,9.59,4.34, -1.07,0.19,0.23
2853,-0.49,-0.80,4.75, -0.70,0.76,-0.85
2854,1.04,-0.74,3.33, 0.37,1.75,-0.72
2855,-1.21,-1.74,5.95, 0.49,3.09,-1.28
2856,1.92,1.79,9.63, -0.66,0.00,-0.27
2857,3.56,-0.31,7.23, 0.15,1.40,-0.08
2858,-19.22,8.34,3.89, -0.00,0.66,0.57
2859,2.00,-2.03,6.17, 0.46,1.23,1.16
2860,1.19,-0.19,5.61, 1.25,2.61,1.23
2861,-8.34,11.89,1.69, -0.61,2.07,0.05
2862,1.13,2.24,4.43, -0.01,3.27,0.00
2863,-40.44,20.01,0.90, -1.71,1.36,-1.58
2864,-0.92,0.88,4.52, -0.34,2.27,-1.45
2865,-14.41,7.24,2.47, -1.63,2.19,-3.26
2866,-10.45,6.45,2.63, -0.75,2.49,-1.21
2867,-9.03,4.21,2.47, -1.80,2.24,-1.27
2868,-5.53,-1.27,3.82, -1.34,0.58,-1.48
2869,-25.18,-5.71,3.82, -0.53,0.36,-0.31
2870,-5.51,-1.24,3.87, -0.29,0.90,0.97
2871,-8.92,0.45,2.74, -0.22,0.73,2.18
2872,-9.03,0.57,2.46, -0.21,0.48,2.60
2873,-10.62,1.65,2.68, -0.08,0.67,3.09
2874,-9.76,2.26,2.98, 0.05,0.58,3.51
2875,-8.46,6.75,3.07, -0.20,0.67,2.78
2876,-8.54,5.83,3.03, -0.58,0.80,0.73
2877,-5.49,3.39,3.59, -0.60,1.05,-0.62
2878,-8.03,1.73,3.76, -0.47,0.78,-1.35
2879,-12.28,2.82,3.27, -0.42,0.43,-0.70
2880,-11.24,2.62,3.30, -0.27,0.34,0.21
2881,-9.72,2.38,3.34, -0.10,0.11,0.92
2882,-9.78,3.85,3.27, -0.08,-0.07,0.78
2883,-10.71,5.25,3.05, -0.18,-0.13,-0.07
2884,-11.19,4.66,2.90, -0.31,-0.19,-0.94
2885,-10.70,3.71,2.74, -0.39,-0.21,-1.10
2886,-11.23,3.78,2.76, -0.49,-0.27,-0.77
2887,-12.57,4.53,3.31, -0.63,-0.32,-0.36
2888,-11.31,4.65,3.78, -0.75,-0.37,-0.24
2889,-10.00,4.19,4.19, -0.87,-0.45,-0.45
2890,-8.87,4.01,4.50, -0.97,-0.46,-0.72
2891,-8.38,3.71,4.23, -0.99,-0.41,-0.77
2892,-8.98,3.23,3.59, -0.93,-0.41,-0.52
2893,-9.32,3.24,3.13, -0.85,-0.40,-0.21
2894,-10.35,3.98,2.78, -0.82,-0.40,-0.16
2895,-10.84,4.17,2.80, -0.87,-0.41,-0.29
2896,-10.58,4.04,2.54, -0.97,-0.42,-0.27
2897,-9.30,3.56,2.50, -1.07,-0.36,0.01
2898,-9.88,3.49,2.47, -1.14,-0.29,0.41
2899,-9.95,3.41,2.51, -1.14,-0.27,0.72
2900,-8.85,3.36,2.66, -1.13,-0.26,0.63
2901,-7.86,3.25,2.77, -1.15,-0.20,0.29
2902,-8.23,3.11,3.07, -1.13,-0.11,0.16
2903,-8.74,3.31,3.69, -1.12,-0.11,0.29
2904,-7.65,3.58,4.19, -1.10,-0.09,0.40
2905,-7.34,4.74,4.77, -1.33,0.06,0.57
2906,-7.24,5.09,5.32, -1.52,0.18,0.70
2907,-6.22,5.70,3.73, -1.83,0.36,0.51
2908,-6.05,5.48,1.69, -2.03,0.71,0.04
2909,-5.81,4.25,1.75, -2.10,1.14,0.09
2910,-8.13,4.71,2.35, -2.21,1.20,0.66
2911,-6.86,4.58,2.21, -2.19,1.25,1.19
2912,-7.01,5.07,1.74, -2.19,1.41,1.15
2913,-7.35,5.90,1.14, -2.36,1.61,0.96
2914,-9.12,5.14,0.63, -2.58,1.82,1.36
2915,-9.06,5.20,1.29, -2.71,1.88,2.00
2916,-8.17,5.75,1.65, -2.73,1.91,2.09
2917,-9.56,5.18,2.13, -2.73,1.89,1.73
2918,-10.32,4.13,2.01, -2.46,1.77,1.47
2919,-10.77,3.14,2.04, -2.14,1.58,1.26
2920,-11.76,2.67,2.25, -1.74,1.32,1.25
2921,-11.28,2.29,2.69, -1.57,1.14,1.00
2922,-12.21,1.98,2.01, -1.91,1.27,-0.82
2923,-10.19,2.16,2.10, -2.27,1.22,-2.29
2924,-10.76,1.96,1.95, -2.53,1.01,-2.02
2925,-9.77,-0.68,3.51, -2.19,0.44,-0.38
2926,-10.88,1.04,3.40, -1.72,0.12,1.32
2927,-10.72,3.14,3.75, -1.41,-0.24,2.83
2928,-14.54,10.90,4.40, -1.61,-0.14,3.13
2929,-6.65,8.31,3.41, -1.70,0.64,0.74
2930,-6.97,8.30,3.88, -1.90,0.78,-0.66
2931,-8.60,8.64,1.64, -2.14,0.40,-1.90
2932,-8.93,7.31,1.23, -2.24,0.37,-3.32
2933,-11.93,6.14,1.40, -2.17,0.51,-2.96
2934,-4.04,2.06,3.68, -2.15,0.79,-1.82
2935,-2.98,1.60,2.75, -2.22,1.57,-1.16
2936,-4.72,0.68,5.23, -2.22,0.19,-0.03
2937,-7.62,0.55,0.11, -1.93,0.29,0.27
2938,-8.84,2.26,1.89, -1.61,0.04,-0.08
2939,-9.46,2.79,1.79, -1.68,0.12,-0.27
2940,-9.00,2.30,1.12, -1.64,0.19,-0.17
2941,-9.13,2.12,0.68, -1.52,0.17,0.13
2942,-9.20,2.77,1.13, -1.40,0.13,0.18
2943,-9.26,3.02,1.49, -1.32,0.19,0.08
2944,-9.17,2.77,1.62, -1.24,0.16,0.12
2945,-9.29,2.44,1.45, -1.12,0.14,0.18
2946,-9.55,2.19,1.33, -1.03,0.10,0.09
2947,-9.66,1.66,1.68, -0.96,0.09,-0.01
2948,-9.83,1.01,1.85, -0.86,0.09,0.13
2949,-9.94,1.04,1.79, -0.73,0.03,0.42
2950,-9.93,1.48,2.09, -0.64,-0.02,0.50
2951,-9.80,1.66,1.90, -0.57,-0.04,0.38
2952,-10.13,1.74,2.08, -0.50,-0.08,0.34
2953,-10.28,1.53,2.23, -0.43,-0.11,0.31
2954,-9.64,1.49,2.31, -0.40,-0.15,0.17
2955,-9.60,1.38,2.28, -0.38,-0.14,0.19
2956,-9.56,1.27,1.88, -0.34,-0.08,0.30
2957,-9.40,1.59,1.47, -0.30,-0.04,0.28
2958,-9.38,1.84,1.90, -0.26,-0.02,0.22
2959,-9.11,2.05,2.08, -0.23,0.01,0.25
2960,-8.76,2.45,2.13, -0.23,0.07,0.27
2961,-8.44,4.84,1.03, -0.49,0.27,0.50
2962,-5.69,2.22,3.34, -0.55,0.15,1.79
2963,-10.07,1.83,2.20, -0.69,0.06,1.27
2964,-11.23,0.47,2.09, -0.29,0.87,1.65
2965,-16.17,-0.12,4.16, -0.56,0.95,0.05
2966,-17.46,-0.95,3.61, 0.10,-0.54,-1.18
2967,-15.71,8.30,-0.97, -1.10,-3.68,-0.59
2968,-14.88,8.76,5.01, -1.26,-6.28,0.36
2969,-10.50,10.30,-0.08, -1.87,-5.54,1.55
2970,-10.65,10.03,-0.17, -3.53,-5.62,2.04
2971,-0.69,-3.86,5.72, -2.45,-3.79,0.92
2972,-1.02,-10.25,10.86, 0.44,-0.17,2.00
2973,-6.36,0.43,5.99, 1.47,0.42,2.13
2974,-3.48,1.94,9.88, 1.52,0.30,1.68
2975,-6.79,2.52,9.45, 0.89,0.71,3.50
2976,-5.60,3.06,9.42, -0.53,0.71,3.65
2977,-7.33,0.90,9.10, -0.52,-0.24,3.18
2978,-5.53,2.80,7.98, -0.10,-1.33,2.07
2979,-3.71,5.53,8.54, -0.09,-1.61,1.35
2980,-1.30,4.46,8.07, -0.17,-1.14,1.52
2981,-2.91,6.68,7.63, -0.14,-0.69,1.24
2982,-4.31,8.87,8.81, -0.53,-0.24,0.94
2983,-4.24,6.26,10.66, -0.69,-0.03,1.15
2984,-6.22,8.07,10.83, -0.82,-0.56,1.12
2985,-6.06,7.92,9.16, -1.46,-0.76,2.06
2986,-5.44,4.76,8.35, -1.31,-0.00,1.70
