Step,AccX,AccY,AccZ,GyrX,GyrY,GyrZ
0,5.40,-2.99,-7.05, -0.05,0.00,0.11
1,5.40,-3.09,-7.12, -0.03,0.05,-0.03
2,5.56,-3.06,-7.06, -0.04,0.05,-0.03
3,5.57,-3.00,-7.21, -0.03,-0.02,0.07
4,5.56,-3.07,-7.05, -0.05,-0.02,0.06
5,5.45,-3.19,-7.09, -0.07,0.04,-0.05
6,5.56,-3.09,-7.10, -0.07,0.01,-0.07
7,5.62,-2.96,-7.15, -0.03,-0.05,0.02
8,5.44,-3.01,-7.10, -0.05,-0.08,0.15
9,5.34,-3.22,-7.18, -0.04,-0.06,-0.01
10,5.35,-3.12,-7.09, -0.05,-0.01,-0.12
11,5.32,-3.22,-7.25, -0.05,-0.00,-0.06
12,5.32,-3.15,-7.17, -0.03,-0.04,-0.00
13,5.19,-3.13,-7.14, -0.08,-0.06,0.05
14,5.18,-3.06,-7.25, -0.09,-0.04,-0.03
15,5.14,-3.01,-7.18, -0.09,-0.01,-0.08
16,5.13,-3.05,-7.13, -0.08,0.01,-0.02
17,5.02,-2.94,-7.11, -0.06,-0.01,-0.09
18,5.13,-2.94,-7.12, -0.07,0.02,-0.06
19,5.19,-2.92,-7.07, -0.07,0.01,-0.06
20,5.12,-2.96,-7.18, -0.08,0.02,-0.00
21,5.05,-2.97,-7.20, -0.06,0.01,-0.02
22,5.39,-2.92,-7.04, -0.04,0.01,0.01
23,5.21,-3.04,-7.20, -0.06,0.03,0.11
24,5.39,-3.11,-7.08, -0.04,0.05,-0.01
25,5.36,-2.95,-7.12, -0.08,0.04,0.06
26,5.40,-2.89,-7.11, -0.06,0.01,0.04
27,5.36,-2.90,-7.12, -0.08,0.02,0.06
28,5.40,-2.98,-7.11, -0.06,-0.00,-0.13
29,5.20,-2.99,-7.17, -0.02,0.06,-0.02
30,5.34,-3.05,-7.24, -0.01,0.02,-0.08
31,5.29,-3.03,-7.15, -0.03,-0.02,-0.03
32,5.29,-3.17,-7.18, -0.03,0.01,0.03
33,5.24,-3.11,-7.14, -0.06,0.01,-0.01
34,5.43,-3.12,-7.10, -0.06,0.03,-0.05
35,5.35,-3.06,-7.03, -0.07,0.03,0.03
36,5.44,-3.06,-7.14, -0.07,0.01,0.07
37,5.36,-3.03,-7.02, -0.07,0.03,0.03
38,5.48,-3.08,-6.98, -0.06,0.04,-0.04
39,5.49,-3.06,-7.10, -0.08,0.02,0.01
40,5.62,-3.01,-7.00, -0.08,-0.02,0.00
41,5.45,-3.05,-7.13, -0.09,-0.05,0.07
42,5.56,-2.88,-7.09, -0.07,-0.01,-0.09
43,5.50,-2.98,-7.03, -0.08,-0.01,-0.06
44,5.55,-3.00,-7.10, -0.03,-0.01,-0.03
45,5.44,-3.02,-7.08, -0.07,-0.00,0.03
46,5.36,-3.10,-7.27, -0.06,0.01,-0.06
47,5.58,-3.02,-7.07, -0.07,0.00,-0.09
48,5.55,-3.06,-7.03, -0.10,-0.02,0.02
49,5.54,-3.05,-7.10, -0.05,-0.04,0.05
50,5.44,-3.05,-7.13, -0.05,-0.03,0.10
51,5.36,-3.03,-7.13, -0.05,-0.03,-0.02
52,5.49,-3.11,-7.16, -0.06,-0.04,-0.01
53,5.38,-3.06,-7.10, -0.07,-0.03,0.02
54,5.36,-3.17,-7.10, -0.07,-0.03,-0.04
55,5.29,-3.10,-7.24, -0.07,-0.05,-0.05
56,5.37,-2.99,-7.12, -0.07,-0.03,-0.04
57,5.20,-3.15,-7.14, -0.10,-0.01,-0.06
58,5.28,-3.06,-7.16, -0.09,-0.01,-0.14
59,5.26,-2.91,-7.13, -0.09,-0.03,-0.04
60,5.23,-2.85,-7.08, -0.08,-0.02,0.00
61,5.13,-2.90,-6.99, -0.08,0.03,-0.08
62,5.31,-2.97,-7.08, -0.08,0.03,-0.10
63,5.33,-2.88,-7.05, -0.03,-0.01,0.03
64,5.39,-2.92,-7.06, -0.05,0.01,0.17
65,5.24,-3.04,-7.22, -0.09,0.05,-0.01
66,5.39,-2.98,-7.16, -0.06,0.02,-0.03
67,5.52,-2.85,-7.16, -0.05,-0.02,0.09
68,5.33,-3.03,-7.18, -0.08,-0.03,0.14
69,5.41,-3.08,-7.13, -0.09,0.01,-0.05
70,5.45,-2.96,-7.10, -0.10,0.03,-0.11
71,5.48,-2.85,-7.25, -0.08,-0.00,-0.03
72,5.42,-2.92,-7.04, -0.07,-0.03,0.05
73,5.38,-2.99,-7.12, -0.07,0.01,-0.02
74,5.41,-3.00,-7.11, -0.09,0.01,-0.10
75,5.48,-2.90,-7.04, -0.08,-0.03,-0.00
76,5.48,-2.85,-7.02, -0.09,-0.03,0.07
77,5.32,-2.92,-7.11, -0.09,0.01,0.02
78,5.59,-2.85,-7.05, -0.06,0.03,-0.11
79,5.70,-2.89,-7.02, -0.07,-0.01,0.02
80,5.48,-2.89,-7.17, -0.05,-0.02,0.05
81,5.44,-2.88,-7.18, -0.08,-0.03,0.03
82,5.44,-2.91,-7.22, -0.06,-0.04,-0.03
83,5.48,-2.91,-7.09, -0.07,-0.03,0.02
84,5.32,-2.93,-7.13, -0.07,-0.02,-0.01
85,5.43,-2.97,-7.09, -0.07,-0.03,-0.08
86,5.50,-2.84,-7.12, -0.06,-0.05,-0.00
87,5.34,-2.73,-7.14, -0.06,-0.07,0.08
88,5.34,-2.97,-7.13, -0.05,-0.06,0.02
89,5.25,-2.91,-7.08, -0.05,-0.06,-0.03
90,5.37,-2.96,-7.12, -0.05,-0.06,-0.01
91,5.22,-2.98,-7.19, -0.05,-0.07,0.04
92,5.20,-3.06,-7.15, -0.03,-0.07,0.03
93,5.28,-3.06,-7.19, -0.06,-0.01,0.01
94,5.01,-3.15,-7.30, -0.06,-0.00,-0.04
95,5.16,-2.94,-7.30, -0.06,-0.05,-0.01
96,5.28,-2.97,-7.36, -0.10,-0.03,0.06
97,5.21,-3.09,-7.16, -0.10,-0.00,-0.05
98,5.38,-3.02,-7.14, -0.12,0.00,-0.04
99,5.32,-2.96,-7.09, -0.11,-0.01,0.04
100,5.30,-2.90,-7.04, -0.08,-0.00,0.06
101,5.33,-2.79,-7.17, -0.10,-0.02,0.03
102,5.23,-2.71,-7.16, -0.08,-0.05,0.05
103,5.32,-2.75,-7.13, -0.07,-0.03,0.04
104,5.12,-2.90,-7.11, -0.05,0.02,-0.07
105,5.20,-2.82,-7.14, -0.05,-0.01,-0.07
106,5.12,-2.84,-7.17, -0.04,-0.03,0.05
107,5.10,-2.91,-7.20, -0.04,0.01,0.02
108,5.00,-2.99,-7.26, -0.07,0.01,-0.05
109,5.14,-2.75,-7.24, -0.06,-0.02,-0.03
110,5.10,-2.87,-7.21, -0.05,-0.02,0.12
111,5.08,-2.98,-7.16, -0.03,-0.00,0.07
112,5.10,-2.96,-7.19, -0.05,0.04,0.00
113,5.07,-2.91,-7.20, -0.05,0.04,-0.02
114,5.15,-3.08,-7.27, -0.06,0.05,-0.02
115,5.07,-3.06,-7.12, -0.05,0.07,-0.10
116,5.22,-3.02,-7.20, -0.07,0.07,-0.07
117,5.42,-3.00,-7.22, -0.08,0.03,0.02
118,5.49,-3.10,-7.16, -0.08,0.03,0.10
119,5.50,-3.11,-7.26, -0.06,0.05,0.06
120,5.41,-2.94,-7.18, -0.08,0.04,0.04
121,5.54,-2.96,-7.23, -0.06,0.02,-0.02
122,5.66,-2.96,-7.17, -0.07,0.04,0.03
123,5.58,-3.08,-7.10, -0.08,0.04,0.00
124,5.73,-3.15,-7.11, -0.07,0.04,-0.03
125,5.60,-2.99,-7.15, -0.10,0.01,0.03
126,5.48,-3.08,-7.15, -0.10,-0.03,0.05
127,5.63,-2.95,-7.14, -0.08,-0.01,-0.01
128,5.45,-2.94,-6.98, -0.08,0.01,-0.01
129,5.48,-3.00,-7.00, -0.05,-0.01,-0.03
130,5.45,-2.97,-7.02, -0.06,-0.05,0.11
131,5.40,-2.90,-6.96, -0.08,0.03,-0.01
132,5.22,-2.98,-7.07, -0.10,0.02,-0.09
133,5.33,-2.66,-7.00, -0.06,-0.03,0.00
134,5.03,-2.66,-7.01, -0.06,-0.05,0.11
135,4.89,-2.72,-6.76, -0.05,-0.02,-0.03
136,4.39,-2.60,-6.35, -0.12,-0.07,0.03
137,4.97,-2.39,-6.74, -0.13,0.22,-0.04
138,5.24,-2.65,-7.08, -0.09,0.10,-0.34
139,5.42,-2.77,-6.95, -0.09,-0.02,0.22
140,4.92,-2.97,-6.94, 0.01,-0.02,0.28
141,4.97,-2.74,-6.87, -0.01,-0.02,0.10
142,4.94,-2.76,-6.71, -0.02,-0.08,0.20
143,4.88,-2.59,-6.68, 0.01,-0.04,0.31
144,5.04,-2.64,-6.84, 0.00,0.09,-0.13
145,5.20,-2.84,-6.90, 0.02,0.14,-0.03
146,5.25,-2.84,-7.13, 0.08,0.06,0.19
147,4.91,-3.25,-7.23, 0.05,0.02,0.13
148,4.96,-3.05,-7.18, 0.09,-0.04,-0.01
149,5.19,-2.61,-6.77, 0.08,-0.17,0.08
150,4.95,-2.83,-6.60, 0.02,-0.10,0.15
151,5.05,-2.92,-6.49, -0.03,0.06,-0.16
152,5.18,-2.92,-6.75, -0.02,0.07,-0.16
153,5.25,-3.01,-6.64, 0.08,0.04,-0.04
154,5.06,-3.09,-6.79, 0.11,0.02,0.15
155,4.99,-3.15,-6.98, 0.23,-0.03,0.04
156,5.18,-2.98,-6.84, 0.20,-0.14,0.10
157,5.22,-3.17,-6.56, 0.21,-0.07,0.27
158,5.17,-3.85,-6.90, 0.12,0.04,0.06
159,5.17,-3.40,-6.92, 0.12,-0.04,-0.01
160,5.38,-3.54,-6.52, 0.17,-0.07,0.25
161,5.13,-3.45,-6.68, 0.08,-0.08,0.27
162,4.98,-3.67,-6.83, 0.13,-0.10,0.04
163,5.29,-3.49,-6.98, 0.12,-0.16,0.13
164,4.93,-3.58,-6.66, 0.15,-0.23,0.13
165,5.15,-3.46,-6.67, 0.17,-0.15,0.03
166,4.89,-3.80,-6.70, 0.19,-0.07,-0.05
167,5.06,-3.70,-6.83, 0.22,-0.12,-0.04
168,5.11,-3.75,-6.99, 0.21,-0.16,0.14
169,4.86,-3.98,-7.11, 0.14,-0.09,0.01
170,4.49,-3.60,-6.65, 0.03,-0.10,-0.25
171,5.04,-3.83,-7.35, 0.01,-0.21,-0.01
172,5.07,-3.90,-6.82, 0.05,-0.29,0.08
173,5.18,-3.90,-6.68, -0.03,-0.14,0.12
174,5.23,-4.11,-6.89, -0.03,-0.08,-0.00
175,5.08,-3.77,-6.81, 0.02,-0.09,0.12
176,4.76,-3.61,-6.70, 0.02,-0.17,0.28
177,4.83,-3.81,-6.88, -0.01,-0.09,-0.02
178,5.04,-3.95,-6.96, -0.11,-0.03,-0.41
179,5.14,-3.64,-6.65, 0.03,-0.09,-0.23
180,5.09,-3.77,-6.62, 0.07,-0.16,0.15
181,4.83,-3.95,-6.59, 0.09,-0.11,-0.09
182,5.21,-3.96,-6.51, 0.09,-0.02,-0.14
183,5.01,-3.50,-6.60, 0.10,-0.12,0.05
184,4.84,-3.70,-6.73, 0.11,-0.14,0.13
185,4.68,-3.86,-7.03, 0.05,-0.14,-0.07
186,4.65,-3.71,-6.87, 0.08,-0.17,-0.16
187,4.83,-3.75,-6.66, 0.12,-0.21,0.02
188,4.89,-3.94,-6.68, 0.16,-0.13,-0.02
189,4.94,-4.00,-6.70, 0.18,0.01,-0.11
190,4.91,-3.81,-6.86, 0.20,0.06,0.01
191,4.69,-3.86,-6.89, 0.12,-0.05,0.14
192,4.69,-4.38,-7.30, 0.14,-0.03,0.15
193,4.89,-4.33,-7.22, 0.12,-0.14,-0.07
194,4.94,-4.13,-7.11, 0.06,-0.32,0.39
195,4.69,-4.27,-6.79, 0.10,-0.36,0.47
196,4.97,-3.61,-6.74, -0.09,-0.21,0.25
197,4.83,-4.09,-6.40, -0.02,-0.13,-0.06
198,5.22,-4.59,-7.07, -0.10,-0.06,0.28
199,4.62,-4.36,-6.85, -0.03,-0.02,0.19
200,4.65,-5.12,-7.90, -0.08,-0.07,0.19
201,5.17,-4.83,-6.91, -0.09,-0.07,0.08
202,4.51,-4.31,-7.13, -0.16,-0.10,0.22
203,5.75,-5.79,-8.34, -0.15,-0.04,-0.16
204,4.40,-3.76,-6.48, -0.17,-0.05,0.31
205,4.14,-5.23,-8.12, -0.06,-0.01,0.34
206,5.53,-6.23,-8.44, -0.03,0.15,-0.21
207,3.26,-3.62,-5.27, -0.01,-0.00,0.08
208,4.66,-4.58,-7.92, -0.07,-0.05,0.16
209,4.31,-3.96,-7.10, 0.00,-0.03,-0.27
210,4.16,-3.86,-6.82, -0.03,-0.10,-0.02
211,5.08,-5.27,-6.93, -0.02,-0.08,-0.12
212,4.48,-4.84,-7.29, -0.06,-0.15,-0.04
213,4.40,-4.43,-7.07, 0.03,-0.08,0.01
214,4.66,-4.76,-6.83, 0.09,0.10,0.06
215,5.09,-4.27,-6.78, 0.09,0.22,-0.20
216,4.87,-4.48,-6.45, -0.02,0.15,0.14
217,4.62,-4.40,-6.95, 0.06,0.12,0.19
218,4.50,-4.66,-6.63, 0.03,0.10,-0.01
219,4.68,-4.06,-6.62, -0.06,-0.05,-0.04
220,4.58,-4.55,-6.79, 0.06,-0.11,0.16
221,4.44,-4.86,-6.79, 0.01,-0.12,0.20
222,4.55,-4.62,-6.70, 0.07,-0.04,-0.08
223,4.53,-4.33,-6.54, 0.14,-0.08,-0.02
224,4.47,-4.67,-6.10, 0.13,0.08,0.24
225,4.67,-4.52,-6.23, 0.10,0.24,-0.30
226,4.83,-4.14,-6.14, -0.02,0.22,-0.30
227,4.89,-4.15,-6.02, -0.05,0.21,-0.08
228,4.77,-4.61,-6.70, -0.13,0.25,-0.00
229,4.13,-4.90,-7.85, -0.15,0.15,-0.23
230,4.31,-4.33,-6.83, -0.11,-0.10,-0.09
231,4.41,-4.49,-6.98, -0.06,-0.15,0.18
232,4.49,-4.60,-6.54, -0.07,-0.06,-0.22
233,5.21,-4.34,-6.22, -0.15,0.09,-0.13
234,4.99,-4.07,-6.49, -0.20,0.09,0.13
235,4.85,-4.51,-6.67, -0.27,0.18,0.09
236,5.23,-4.41,-6.85, -0.30,0.33,-0.37
237,4.35,-4.27,-7.29, -0.29,0.12,0.25
238,4.36,-3.83,-6.83, 0.02,0.02,0.11
239,4.24,-3.34,-6.27, -0.03,0.01,-0.00
240,3.01,-3.17,-4.76, -0.23,-0.20,0.13
241,4.56,-3.56,-6.67, 0.10,-0.20,-0.39
242,4.89,-4.11,-5.57, -0.06,0.06,-0.06
243,5.79,-4.33,-6.81, 0.03,0.17,-0.41
244,4.87,-4.09,-6.66, 0.08,-0.00,0.56
245,4.43,-4.45,-6.45, 0.07,-0.07,0.20
246,4.43,-4.32,-6.69, -0.18,-0.00,-0.02
247,5.50,-4.06,-6.36, -0.10,-0.16,-0.14
248,5.43,-5.14,-6.30, -0.33,-0.44,0.61
249,4.81,-4.51,-7.22, -0.26,-0.42,0.54
250,4.38,-3.87,-6.81, -0.24,-0.35,0.40
251,5.10,-4.47,-6.88, -0.29,-0.05,0.20
252,4.62,-4.38,-6.84, -0.36,0.11,0.18
253,4.29,-4.54,-7.84, -0.30,0.07,0.32
254,4.21,-4.56,-6.56, -0.18,0.00,0.54
255,4.67,-4.31,-6.12, -0.27,0.07,0.48
256,4.29,-4.00,-6.53, -0.26,0.19,0.59
257,4.02,-3.30,-7.02, -0.30,0.21,0.60
258,3.91,-4.37,-6.50, -0.20,0.33,0.35
259,3.93,-4.76,-7.02, 0.03,0.42,0.49
260,4.73,-4.79,-6.83, 0.30,0.40,0.29
261,4.86,-4.53,-6.94, 0.14,0.39,0.50
262,4.39,-4.63,-6.57, 0.03,0.39,0.14
263,3.79,-4.17,-7.26, -0.34,0.15,0.26
264,4.03,-3.90,-6.94, -0.17,-0.04,-0.52
265,4.59,-5.64,-7.77, -0.16,-0.41,0.23
266,4.68,-4.65,-7.33, -0.07,-0.58,0.49
267,5.04,-5.32,-6.62, 0.08,-0.14,-0.05
268,5.37,-4.30,-5.76, -0.05,0.23,0.07
269,4.01,-4.30,-8.09, -0.03,0.52,-0.13
270,3.84,-3.25,-6.76, -0.23,0.73,-0.38
271,3.28,-3.09,-6.34, -0.38,0.88,-0.70
272,2.83,-3.26,-5.82, -0.31,0.74,-0.09
273,3.02,-3.12,-6.35, -0.20,0.58,0.02
274,2.56,-3.24,-6.05, 0.01,0.45,0.11
275,4.16,-4.87,-6.70, -0.19,0.24,0.38
276,4.11,-5.20,-5.82, -0.21,0.50,-0.05
277,4.66,-4.34,-6.92, -0.20,0.69,-0.61
278,4.98,-4.21,-6.42, -0.22,0.39,-0.35
279,5.31,-4.36,-6.42, -0.18,0.06,-0.07
280,5.62,-5.21,-6.74, -0.10,0.01,-0.24
281,5.52,-4.38,-6.36, -0.16,-0.13,-0.26
282,5.67,-4.41,-6.46, -0.16,0.06,-0.38
283,5.76,-5.41,-6.69, -0.15,0.09,-0.45
284,8.35,-5.89,-8.54, -0.21,0.35,-0.71
285,9.58,-6.90,-7.87, -0.13,0.38,-0.40
286,4.67,-4.12,-4.89, 0.13,0.09,0.24
287,6.66,-4.75,-5.92, 0.12,0.27,0.49
288,6.89,-4.47,-6.06, -0.01,0.53,0.23
289,7.54,-4.98,-6.69, -0.09,0.59,0.20
290,14.34,-8.27,-10.75, -0.43,0.46,1.19
291,10.74,-5.40,-7.52, -0.73,0.80,0.87
292,7.68,-4.94,-8.95, -0.14,1.33,0.73
293,4.86,-3.76,-6.80, -0.22,0.95,1.38
294,4.84,-3.73,-6.61, 0.16,0.69,1.82
295,4.96,-4.36,-6.58, 0.12,0.90,0.92
296,6.09,-6.18,-7.37, -0.29,1.01,-0.02
297,3.74,-3.29,-5.27, -0.03,0.27,-0.01
298,4.39,-4.64,-5.19, -0.19,-0.36,0.98
299,4.41,-5.74,-6.62, -0.27,-0.58,0.19
300,4.69,-5.20,-6.66, 0.21,-0.67,0.31
301,5.48,-4.71,-7.35, 0.69,-0.25,0.55
302,7.27,-5.83,-7.06, 0.08,0.27,0.30
303,5.06,-5.60,-6.62, -0.09,0.53,0.08
304,3.31,-3.39,-5.46, -0.07,0.01,0.45
305,4.71,-4.71,-6.19, -0.21,-0.33,0.44
306,6.07,-5.15,-5.87, -0.60,-0.23,0.30
307,5.44,-4.56,-5.64, -0.68,-0.27,-0.05
308,5.86,-4.20,-6.45, -0.82,-0.50,0.12
309,5.16,-5.00,-6.20, -0.88,-0.97,0.88
310,5.07,-6.20,-7.40, -0.87,-0.70,0.73
311,4.96,-5.06,-6.51, -0.85,-0.43,0.33
312,5.08,-4.10,-5.66, -0.93,-0.34,0.71
313,4.53,-3.51,-4.61, -0.95,-0.01,1.03
314,4.34,-3.56,-4.97, -1.29,0.32,0.41
315,3.60,-2.77,-5.53, -1.50,-0.09,1.17
316,6.81,-7.19,-13.24, -1.53,-0.02,1.21
317,2.83,-3.57,-5.71, -1.25,0.23,0.68
318,2.26,-4.51,-4.16, -0.61,-0.42,1.46
319,2.45,-2.81,-5.77, 0.02,0.16,0.45
320,2.68,-2.78,-7.13, -0.70,0.39,-0.12
321,2.41,-4.51,-4.36, -0.95,-0.20,0.62
322,4.29,-3.53,-6.20, -0.65,-0.15,0.72
323,4.74,-4.01,-7.00, -0.76,0.31,0.08
324,3.35,-3.42,-7.51, -0.53,0.04,0.90
325,3.51,-5.51,-7.36, -0.12,0.00,0.85
326,3.41,-4.98,-7.42, -0.38,-0.06,0.44
327,3.55,-4.40,-7.96, -0.13,-0.01,-0.39
328,3.81,-3.40,-7.30, -0.06,-0.19,0.37
329,2.65,-3.96,-7.82, -0.18,-0.60,0.54
330,2.89,-3.82,-8.31, 0.00,-0.53,-0.85
331,3.08,-5.37,-7.99, 0.00,-0.73,-0.08
332,2.84,-2.65,-6.02, 0.40,-0.93,-1.12
333,4.79,-6.62,-8.11, 0.01,-0.72,-0.54
334,4.88,-4.48,-6.94, 0.55,-0.41,-1.86
335,4.65,-4.09,-6.03, 0.13,-0.55,-0.26
336,3.01,-3.91,-8.00, -0.23,-0.41,-0.72
337,4.97,-4.44,-7.79, -0.34,-0.05,-1.42
338,4.59,-3.90,-7.76, -0.55,0.06,-0.34
339,4.78,-4.39,-8.53, -0.37,0.18,-0.22
340,3.75,-4.42,-8.27, -0.55,0.22,0.01
341,3.89,-4.69,-7.61, -0.37,0.14,-0.09
342,4.16,-3.80,-8.80, -0.47,0.14,-0.00
343,4.17,-3.44,-8.37, -0.47,0.18,-0.01
344,3.88,-3.86,-8.22, -0.40,0.13,0.12
345,4.05,-3.44,-8.50, -0.55,0.09,-0.02
346,3.98,-3.76,-8.07, -0.30,0.09,-0.19
347,4.89,-3.56,-8.09, -0.41,0.13,0.07
348,4.89,-3.69,-8.13, -0.25,0.32,-0.05
349,4.79,-3.29,-7.02, -0.23,0.34,0.52
350,4.23,-3.61,-6.66, -0.14,0.55,0.21
351,4.82,-3.79,-7.22, -0.34,0.79,0.22
352,3.70,-3.70,-6.89, -0.14,0.55,0.45
353,4.51,-3.58,-7.84, -0.14,0.60,0.26
354,4.95,-4.09,-7.69, -0.02,0.56,0.16
355,4.44,-3.51,-7.13, 0.07,0.38,0.73
356,4.38,-3.45,-7.10, 0.03,0.39,0.33
357,4.04,-3.57,-6.70, 0.13,0.33,0.18
358,3.33,-2.79,-6.21, 0.20,-0.03,0.44
359,4.07,-2.96,-6.48, 0.22,0.10,0.15
360,4.48,-3.40,-6.98, 0.35,0.25,0.11
361,4.31,-3.17,-7.33, 0.43,0.05,0.32
362,4.17,-3.67,-6.87, 0.32,-0.04,0.35
363,4.20,-3.84,-6.59, 0.24,0.05,-0.02
364,4.62,-3.81,-6.80, 0.26,0.04,-0.06
365,4.58,-3.97,-6.92, 0.28,0.01,0.12
366,4.57,-4.07,-6.70, 0.44,0.02,0.25
367,4.37,-4.01,-6.69, 0.35,0.07,0.27
368,4.01,-4.01,-6.68, 0.44,0.19,-0.03
369,4.44,-4.56,-7.20, 0.38,0.31,-0.05
370,7.38,-7.26,-7.96, 0.36,0.61,-0.32
371,4.70,-4.63,-6.22, 0.41,0.70,-0.01
372,4.59,-4.45,-6.48, 0.16,0.51,0.34
373,3.06,-3.47,-4.52, 0.11,0.39,0.54
374,4.13,-4.81,-6.64, 0.18,0.38,0.35
375,4.44,-5.26,-7.43, 0.23,0.37,0.36
376,4.01,-4.68,-7.36, 0.34,0.34,0.32
377,3.47,-5.60,-7.15, 0.28,0.13,0.84
378,3.86,-4.82,-6.86, 0.31,0.07,0.10
379,4.83,-4.61,-6.50, 0.03,0.21,0.21
380,5.13,-4.33,-6.16, -0.07,0.28,0.13
381,5.68,-4.65,-6.80, -0.39,0.29,0.77
382,5.11,-4.65,-6.04, -0.35,0.50,-0.06
383,4.48,-4.70,-6.90, -0.35,0.37,0.24
384,4.73,-4.49,-6.47, -0.13,0.13,0.29
385,4.17,-5.05,-6.38, -0.20,0.14,0.31
386,4.10,-5.20,-6.07, -0.15,0.10,-0.08
387,4.49,-4.72,-5.92, -0.19,0.03,0.00
388,3.49,-3.56,-4.93, -0.39,-0.07,0.26
389,4.82,-6.03,-5.90, -0.24,0.12,0.06
390,4.70,-6.09,-7.10, 0.02,0.24,0.01
391,4.76,-5.20,-6.97, 0.16,0.12,0.29
392,4.62,-6.19,-6.89, 0.18,0.08,0.26
393,5.28,-5.20,-6.89, 0.20,0.29,0.38
394,5.28,-5.20,-6.59, -0.05,0.25,0.46
395,5.42,-5.33,-6.55, -0.19,0.36,0.48
396,5.92,-5.10,-6.65, -0.26,0.54,0.34
397,5.69,-5.07,-6.64, -0.27,0.57,0.51
398,5.17,-5.26,-6.69, -0.19,0.49,0.68
399,4.35,-5.16,-7.48, -0.23,0.32,0.58
400,3.88,-5.71,-7.18, -0.02,0.01,-0.03
401,5.59,-4.95,-6.33, -0.24,-0.22,0.12
402,5.40,-5.09,-6.29, -0.34,-0.10,-0.11
403,5.62,-4.79,-6.53, -0.38,-0.05,0.02
404,4.75,-5.05,-6.74, -0.39,-0.02,0.11
405,4.46,-4.98,-6.63, -0.41,-0.02,0.16
406,4.68,-5.14,-7.00, -0.51,0.01,-0.11
407,4.85,-5.25,-6.94, -0.34,0.08,-0.01
408,5.42,-5.09,-6.79, -0.28,0.00,0.36
409,5.11,-5.29,-6.85, -0.24,0.10,0.39
410,5.47,-5.32,-6.81, -0.21,0.24,0.18
411,5.14,-5.68,-6.85, -0.25,0.22,0.32
412,5.71,-5.59,-6.88, -0.22,0.20,0.21
413,5.83,-5.70,-7.03, -0.17,0.30,0.10
414,5.49,-5.69,-7.40, -0.07,0.22,0.36
415,5.36,-5.59,-7.34, -0.12,0.06,0.28
416,5.58,-5.67,-7.00, -0.11,0.09,-0.05
417,5.87,-5.66,-6.86, -0.18,0.07,0.02
418,5.79,-5.60,-6.99, -0.29,-0.03,0.03
419,5.68,-5.92,-7.05, -0.24,-0.02,-0.18
420,5.49,-5.87,-7.28, -0.05,-0.01,-0.15
421,5.79,-5.54,-7.33, 0.03,-0.12,-0.10
422,5.46,-5.45,-6.95, 0.13,-0.07,-0.10
423,5.37,-5.41,-6.92, 0.05,-0.08,-0.01
424,4.99,-5.54,-6.96, -0.06,-0.09,-0.09
425,5.43,-5.17,-6.69, -0.10,-0.05,-0.28
426,5.55,-5.20,-6.83, -0.07,-0.03,-0.15
427,5.50,-4.92,-6.97, 0.02,-0.03,0.02
428,5.04,-4.93,-6.73, 0.06,-0.08,0.02
429,4.88,-4.87,-6.76, 0.04,-0.05,-0.15
430,5.28,-4.75,-6.40, 0.01,-0.10,-0.23
431,4.96,-4.99,-6.36, -0.08,-0.08,0.00
432,4.77,-4.99,-6.57, -0.10,-0.10,-0.20
433,5.08,-4.99,-6.52, -0.04,-0.08,-0.36
434,5.37,-4.88,-6.85, 0.06,0.01,-0.13
435,5.03,-4.80,-6.67, 0.10,-0.01,0.13
436,4.57,-5.12,-6.91, 0.04,0.03,0.13
437,4.72,-5.00,-6.65, 0.02,0.11,-0.10
438,5.33,-4.65,-6.30, -0.11,0.08,-0.02
439,5.25,-5.13,-6.50, -0.12,0.12,0.12
440,5.26,-5.04,-6.67, -0.14,0.15,0.06
441,5.00,-4.84,-6.57, -0.07,0.14,0.05
442,4.57,-4.87,-6.22, -0.14,-0.01,0.23
443,4.46,-5.10,-6.23, -0.23,-0.00,-0.16
444,5.13,-4.68,-6.10, -0.30,0.02,-0.32
445,4.96,-4.83,-5.96, -0.27,-0.01,-0.05
446,4.82,-4.94,-6.12, -0.18,0.01,0.12
447,4.84,-5.09,-5.97, -0.10,0.03,-0.06
448,4.91,-4.86,-6.09, -0.08,0.12,0.02
449,5.03,-4.57,-6.04, -0.01,0.07,0.10
450,4.58,-4.92,-6.16, 0.03,0.08,0.18
451,5.01,-4.60,-6.21, 0.06,0.11,0.02
452,4.97,-4.59,-6.02, -0.02,0.10,0.09
453,4.89,-4.57,-6.19, -0.09,0.09,0.12
454,4.66,-4.60,-5.82, -0.17,0.03,0.05
455,4.42,-4.69,-5.87, -0.23,-0.02,0.02
456,4.74,-4.78,-5.90, -0.24,-0.09,-0.16
457,4.99,-4.34,-5.35, -0.22,-0.02,-0.19
458,4.51,-4.22,-5.15, -0.20,-0.01,0.21
459,3.96,-4.15,-5.06, -0.27,-0.07,0.11
460,3.59,-4.13,-4.62, -0.24,-0.08,-0.05
461,3.84,-4.45,-4.45, -0.17,-0.12,0.03
462,3.75,-4.45,-4.88, -0.01,-0.08,0.05
463,3.68,-4.66,-4.87, 0.20,-0.11,-0.13
464,4.16,-4.22,-4.63, 0.29,-0.09,0.35
465,4.07,-4.08,-4.30, 0.38,0.04,0.27
466,4.30,-4.01,-4.46, 0.29,0.24,0.38
467,3.67,-3.97,-4.52, 0.32,0.24,0.39
468,3.54,-3.80,-4.76, 0.34,0.13,0.54
469,4.73,-5.24,-5.42, 0.47,0.23,0.49
470,4.58,-4.74,-5.38, 0.47,0.38,0.76
471,3.93,-4.83,-5.03, 0.38,0.29,0.73
472,4.12,-4.99,-4.59, 0.42,0.15,1.34
473,6.63,-9.33,-6.76, 0.42,0.25,0.78
474,7.97,10.92,-21.95, -1.69,2.74,-7.19
475,10.20,-23.32,-33.60, -3.45,3.32,-5.61
476,11.04,-3.65,-14.73, 0.25,-3.24,4.61
477,12.72,-2.20,-16.80, 0.67,-2.36,6.43
478,6.72,-0.06,-2.73, -2.77,-0.28,2.47
479,2.14,-8.93,-6.52, -1.26,2.35,-3.62
480,3.19,-4.00,-7.25, 1.57,1.12,0.74
481,7.25,-11.62,-11.16, -0.21,0.05,1.39
482,3.33,-7.39,-9.13, -0.18,0.10,-0.18
483,3.27,-4.36,-7.30, 0.29,0.05,-0.16
484,5.15,-4.24,-5.58, -0.14,0.06,-0.10
485,3.82,-5.58,-7.15, -0.26,0.03,0.02
486,4.96,-4.57,-6.29, 0.17,-0.01,-0.29
487,4.31,-5.21,-6.75, -0.21,-0.05,0.57
488,4.23,-5.15,-6.68, -0.00,0.01,-0.35
489,4.51,-4.93,-6.45, -0.11,0.04,-0.01
490,4.47,-5.07,-6.63, -0.07,-0.03,0.03
491,4.42,-5.09,-6.65, -0.05,-0.02,0.11
492,4.37,-5.13,-6.57, -0.08,0.00,-0.06
493,4.49,-5.04,-6.62, -0.08,0.01,-0.06
494,4.41,-5.06,-6.55, -0.04,-0.01,0.07
495,4.40,-5.09,-6.47, -0.09,-0.02,0.04
496,4.32,-5.13,-6.59, -0.06,0.01,-0.05
497,4.52,-5.01,-6.57, -0.08,-0.00,-0.02
498,4.36,-5.02,-6.67, -0.07,-0.01,0.05
499,4.42,-5.06,-6.52, -0.06,-0.01,0.01
500,4.46,-5.06,-6.62, -0.08,0.00,-0.02
501,4.39,-4.95,-6.55, -0.06,-0.00,-0.02
502,4.42,-5.04,-6.52, -0.07,-0.01,0.04
503,4.43,-5.05,-6.63, -0.07,-0.01,0.00
504,4.41,-5.01,-6.48, -0.07,0.00,-0.01
505,4.47,-5.08,-6.61, -0.07,-0.01,0.00
506,4.43,-5.02,-6.63, -0.07,-0.01,0.02
507,4.43,-5.04,-6.57, -0.07,-0.00,-0.00
508,4.38,-5.06,-6.57, -0.07,-0.00,-0.00
509,4.45,-5.08,-6.61, -0.07,-0.01,0.01
510,4.47,-5.01,-6.56, -0.07,-0.01,0.01
511,4.44,-5.03,-6.67, -0.07,-0.00,-0.00
512,4.44,-5.03,-6.63, -0.07,-0.01,0.00
513,4.41,-5.07,-6.60, -0.07,-0.01,0.01
514,4.43,-5.08,-6.68, -0.06,0.01,0.01
515,4.37,-5.01,-6.57, -0.08,-0.00,0.02
516,4.42,-5.18,-6.65, -0.07,0.00,0.00
517,4.46,-5.05,-6.60, -0.07,-0.00,0.00
518,4.49,-5.07,-6.51, -0.08,-0.01,0.00
519,4.38,-5.07,-6.51, -0.07,-0.01,-0.01
520,4.39,-5.09,-6.57, -0.07,-0.00,0.01
521,4.45,-5.01,-6.57, -0.07,-0.01,-0.00
522,4.44,-5.07,-6.60, -0.07,-0.00,0.01
523,4.38,-5.11,-6.64, -0.07,-0.00,0.00
524,4.42,-4.97,-6.58, -0.07,-0.01,0.01
525,4.43,-5.09,-6.60, -0.06,-0.00,0.01
526,4.44,-5.04,-6.68, -0.07,-0.00,0.00
527,4.41,-5.05,-6.66, -0.08,-0.00,0.01
528,4.43,-5.11,-6.64, -0.06,-0.01,0.00
529,4.41,-5.09,-6.58, -0.07,-0.01,0.00
530,4.47,-5.11,-6.59, -0.07,-0.01,0.00
531,4.39,-5.04,-6.60, -0.07,-0.01,0.00
532,4.42,-5.08,-6.58, -0.07,-0.01,0.01
533,4.44,-5.03,-6.58, -0.07,-0.00,0.00
534,4.42,-5.05,-6.58, -0.07,-0.01,0.00
535,4.42,-5.11,-6.59, -0.07,-0.00,0.01
536,4.35,-5.05,-6.56, -0.07,-0.01,0.00
537,4.42,-5.02,-6.62, -0.07,-0.00,0.00
538,4.44,-5.01,-6.63, -0.07,-0.00,0.01
539,4.43,-5.04,-6.54, -0.06,0.00,0.01
540,4.48,-5.04,-6.45, -0.07,-0.01,-0.02
541,4.44,-5.00,-6.63, -0.08,-0.01,0.02
542,4.46,-5.01,-6.63, -0.06,-0.01,-0.02
543,4.43,-5.10,-6.63, -0.07,-0.01,0.02
544,4.37,-5.07,-6.52, -0.06,-0.00,-0.00
545,4.47,-5.05,-6.59, -0.07,-0.01,0.00
546,4.45,-5.03,-6.55, -0.07,-0.01,0.01
547,4.40,-5.04,-6.37, -0.06,-0.00,-0.00
548,4.47,-5.08,-6.58, -0.07,-0.01,-0.01
549,4.44,-5.11,-6.54, -0.07,-0.01,0.00
550,4.41,-5.13,-6.60, -0.07,-0.00,0.00
551,4.43,-4.98,-6.56, -0.07,-0.00,0.01
552,4.45,-5.06,-6.54, -0.07,-0.01,0.00
553,4.40,-4.99,-6.57, -0.07,-0.01,-0.00
554,4.40,-5.02,-6.61, -0.07,-0.00,0.01
555,4.46,-5.11,-6.60, -0.07,-0.00,-0.00
556,4.42,-5.05,-6.56, -0.07,-0.00,0.00
557,4.46,-5.08,-6.55, -0.07,-0.01,0.01
558,4.42,-5.09,-6.53, -0.07,-0.00,0.01
559,4.44,-5.03,-6.51, -0.07,-0.01,0.00
560,4.42,-5.11,-6.48, -0.07,-0.00,0.00
561,4.44,-5.09,-6.61, -0.07,-0.01,0.01
562,4.41,-5.04,-6.62, -0.07,-0.00,0.00
563,4.40,-5.08,-6.62, -0.07,-0.00,0.00
564,4.41,-5.03,-6.54, -0.07,-0.01,0.00
565,4.42,-5.02,-6.57, -0.07,-0.00,0.00
566,4.39,-5.04,-6.62, -0.07,-0.01,0.01
567,4.46,-5.10,-6.56, -0.07,-0.01,-0.00
568,4.38,-5.08,-6.61, -0.07,-0.01,0.00
569,4.42,-5.05,-6.64, -0.07,-0.01,0.00
570,4.39,-5.11,-6.62, -0.07,-0.01,0.00
571,4.44,-4.99,-6.60, -0.07,-0.01,0.01
572,4.47,-5.07,-6.55, -0.07,-0.01,0.00
573,4.47,-5.09,-6.62, -0.07,-0.01,0.01
574,4.44,-5.08,-6.59, -0.07,-0.00,0.00
575,4.46,-5.10,-6.66, -0.06,-0.00,0.00
576,4.42,-5.01,-6.63, -0.07,-0.01,0.00
577,4.44,-5.08,-6.57, -0.07,-0.01,0.01
578,4.41,-5.05,-6.56, -0.07,-0.01,0.01
579,4.49,-5.04,-6.57, -0.07,-0.00,0.00
580,4.39,-5.07,-6.58, -0.07,-0.01,0.00
581,4.49,-5.05,-6.55, -0.07,-0.01,0.01
582,4.42,-4.96,-6.62, -0.07,-0.01,0.01
583,4.44,-5.13,-6.66, -0.07,-0.01,0.00
584,4.42,-5.09,-6.55, -0.07,-0.01,0.00
585,4.41,-5.04,-6.53, -0.07,-0.00,0.00
586,4.43,-5.06,-6.60, -0.07,-0.00,0.01
587,4.48,-5.11,-6.64, -0.07,-0.01,0.01
588,4.41,-5.00,-6.61, -0.07,-0.00,0.00
589,4.42,-5.01,-6.58, -0.07,-0.01,0.01
590,4.42,-5.07,-6.58, -0.07,-0.01,0.01
591,4.44,-5.09,-6.49, -0.07,-0.00,0.00
592,4.45,-4.98,-6.65, -0.07,-0.01,0.00
593,4.50,-5.01,-6.56, -0.07,-0.00,0.01
594,4.45,-5.07,-6.62, -0.07,-0.00,0.01
595,4.39,-5.07,-6.57, -0.07,-0.00,0.00
596,4.46,-5.02,-6.58, -0.07,-0.01,0.00
597,4.41,-5.01,-6.60, -0.07,-0.00,0.01
598,4.43,-5.06,-6.53, -0.07,-0.01,0.00
599,4.46,-5.05,-6.54, -0.07,-0.00,0.00
600,4.46,-5.11,-6.60, -0.07,-0.01,0.00
601,4.45,-5.06,-6.51, -0.07,-0.01,0.01
602,4.39,-5.08,-6.65, -0.07,-0.00,0.01
603,4.40,-5.04,-6.58, -0.07,-0.00,0.00
604,4.50,-5.02,-6.64, -0.07,-0.01,0.00
605,4.43,-5.04,-6.54, -0.07,-0.01,0.01
606,4.43,-5.04,-6.60, -0.07,-0.01,0.00
607,4.40,-5.02,-6.57, -0.07,-0.00,0.00
608,4.47,-5.04,-6.56, -0.07,-0.00,0.00
609,4.47,-5.01,-6.65, -0.07,-0.01,0.00
610,4.43,-5.04,-6.71, -0.07,-0.00,0.00
611,4.38,-5.07,-6.56, -0.07,-0.00,0.00
612,4.42,-5.06,-6.61, -0.07,-0.00,0.01
613,4.47,-5.04,-6.57, -0.07,-0.01,0.00
614,4.45,-5.05,-6.56, -0.07,-0.00,-0.00
615,4.47,-5.00,-6.58, -0.07,-0.00,0.01
616,4.39,-5.07,-6.54, -0.07,-0.00,0.00
617,4.49,-5.05,-6.51, -0.07,-0.01,0.01
618,4.40,-5.09,-6.59, -0.06,-0.00,-0.01
619,4.42,-5.12,-6.45, -0.08,-0.00,0.00
620,4.41,-4.99,-6.54, -0.07,-0.01,0.01
621,4.44,-5.04,-6.63, -0.06,-0.00,0.01
622,4.45,-5.04,-6.59, -0.07,-0.00,-0.00
623,4.48,-5.03,-6.61, -0.07,-0.01,0.00
624,4.46,-5.03,-6.68, -0.07,-0.01,0.02
625,4.37,-5.10,-6.57, -0.07,-0.01,0.01
626,4.47,-5.07,-6.58, -0.07,-0.00,-0.00
627,4.44,-5.05,-6.65, -0.07,-0.00,0.01
628,4.40,-5.09,-6.50, -0.07,-0.01,0.01
629,4.38,-5.06,-6.57, -0.07,-0.01,0.00
630,4.45,-5.03,-6.55, -0.07,-0.01,-0.00
631,4.50,-5.02,-6.49, -0.07,-0.01,0.01
632,4.41,-5.11,-6.61, -0.07,-0.01,0.01
633,4.37,-5.10,-6.59, -0.07,-0.01,0.00
634,4.40,-5.02,-6.56, -0.07,-0.01,0.00
635,4.47,-5.03,-6.58, -0.07,-0.00,0.00
636,4.39,-5.08,-6.52, -0.07,-0.01,0.01
637,4.42,-5.05,-6.60, -0.07,-0.00,0.00
638,4.42,-5.00,-6.54, -0.07,-0.00,0.00
639,4.41,-5.08,-6.52, -0.07,-0.01,0.01
640,4.44,-5.05,-6.56, -0.07,-0.00,0.00
641,4.40,-5.04,-6.56, -0.07,-0.00,0.00
642,4.44,-5.06,-6.55, -0.07,-0.01,0.01
643,4.43,-4.99,-6.62, -0.07,-0.00,0.01
644,4.43,-5.07,-6.61, -0.07,-0.00,0.00
645,4.48,-5.06,-6.55, -0.07,-0.01,0.00
646,4.50,-5.11,-6.59, -0.07,-0.01,0.01
647,4.43,-5.07,-6.56, -0.07,-0.01,0.01
648,4.42,-5.09,-6.57, -0.07,-0.01,0.01
649,4.40,-5.03,-6.54, -0.07,-0.01,0.00
650,4.42,-5.08,-6.62, -0.07,-0.00,0.01
651,4.41,-5.05,-6.57, -0.07,-0.01,0.00
652,4.41,-5.06,-6.59, -0.07,-0.00,0.00
653,4.39,-5.08,-6.56, -0.07,-0.00,0.00
654,4.41,-5.05,-6.55, -0.07,-0.00,0.00
655,4.41,-5.02,-6.58, -0.07,-0.00,0.01
656,4.42,-5.02,-6.65, -0.07,-0.00,0.01
657,4.46,-5.02,-6.70, -0.07,-0.01,0.00
658,4.43,-5.04,-6.59, -0.07,-0.01,0.01
659,4.34,-5.05,-6.52, -0.07,-0.01,0.01
660,4.44,-5.10,-6.60, -0.07,-0.00,0.00
661,4.43,-5.00,-6.67, -0.07,-0.01,0.01
662,4.41,-5.04,-6.61, -0.07,-0.01,0.01
663,4.41,-5.04,-6.63, -0.07,-0.00,0.01
664,4.42,-5.05,-6.63, -0.07,-0.01,-0.00
665,4.46,-5.01,-6.54, -0.07,-0.01,0.00
666,4.51,-5.00,-6.55, -0.07,-0.01,0.01
667,4.38,-5.11,-6.61, -0.07,-0.00,0.00
668,4.41,-5.04,-6.58, -0.07,-0.01,0.00
669,4.44,-5.03,-6.50, -0.07,-0.01,0.01
670,4.38,-5.04,-6.62, -0.07,-0.01,0.00
671,4.42,-5.08,-6.55, -0.07,-0.00,0.00
672,4.43,-5.06,-6.56, -0.07,-0.00,0.00
673,4.47,-5.08,-6.55, -0.07,-0.01,0.00
674,4.47,-5.03,-6.56, -0.07,-0.01,0.00
675,4.45,-5.02,-6.59, -0.07,-0.00,0.00
676,4.47,-4.96,-6.71, -0.07,-0.00,0.01
677,4.41,-5.03,-6.62, -0.07,-0.00,0.00
678,4.41,-5.09,-6.55, -0.07,-0.01,0.00
679,4.39,-5.04,-6.52, -0.07,-0.01,0.00
680,4.48,-5.04,-6.59, -0.07,-0.01,0.00
681,4.41,-5.05,-6.63, -0.07,-0.01,0.01
682,4.36,-5.05,-6.51, -0.07,-0.01,0.00
683,4.42,-5.03,-6.61, -0.07,-0.00,0.00
684,4.45,-4.99,-6.57, -0.07,-0.01,0.00
685,4.42,-5.02,-6.58, -0.07,-0.01,0.01
686,4.39,-5.06,-6.61, -0.07,-0.01,0.01
687,4.48,-5.02,-6.60, -0.07,-0.01,0.00
688,4.44,-5.06,-6.60, -0.07,-0.00,0.00
689,4.46,-5.04,-6.56, -0.07,-0.00,0.01
690,4.40,-5.09,-6.55, -0.07,-0.01,0.01
691,4.44,-5.06,-6.59, -0.07,-0.00,0.00
692,4.48,-5.06,-6.55, -0.07,-0.00,0.01
693,4.44,-5.12,-6.55, -0.07,-0.00,0.01
694,4.44,-5.05,-6.59, -0.07,-0.00,0.00
695,4.42,-5.00,-6.57, -0.07,-0.01,0.00
696,4.39,-5.10,-6.56, -0.07,-0.00,0.00
697,4.44,-5.04,-6.62, -0.07,-0.01,0.01
698,4.41,-5.13,-6.60, -0.07,-0.00,0.01
699,4.47,-5.06,-6.56, -0.07,-0.00,0.00
700,4.48,-5.04,-6.52, -0.07,-0.00,0.00
701,4.44,-5.08,-6.66, -0.07,-0.01,0.00
702,4.42,-5.13,-6.55, -0.07,-0.00,0.00
703,4.40,-5.05,-6.59, -0.07,-0.00,0.00
704,4.47,-5.04,-6.48, -0.07,-0.00,-0.00
705,4.50,-5.04,-6.62, -0.07,-0.00,0.00
706,4.38,-4.99,-6.55, -0.07,-0.00,0.01
707,4.43,-5.04,-6.53, -0.07,-0.00,0.00
708,4.43,-5.02,-6.53, -0.07,-0.00,0.00
709,4.41,-5.04,-6.56, -0.06,-0.01,0.01
710,4.38,-5.00,-6.52, -0.07,-0.00,0.01
711,4.44,-5.01,-6.60, -0.07,-0.01,0.00
712,4.44,-5.08,-6.66, -0.07,-0.00,0.00
713,4.47,-5.04,-6.60, -0.07,-0.01,0.01
714,4.45,-5.04,-6.60, -0.07,-0.01,0.01
715,4.44,-5.07,-6.56, -0.07,-0.01,0.00
716,4.46,-5.09,-6.62, -0.07,-0.00,0.01
717,4.40,-5.11,-6.58, -0.07,-0.01,0.00
718,4.42,-5.08,-6.54, -0.07,-0.01,0.00
719,4.38,-5.09,-6.58, -0.07,-0.01,0.00
720,4.46,-5.04,-6.60, -0.07,-0.01,0.00
721,4.41,-5.05,-6.47, -0.07,-0.00,0.01
722,4.50,-5.04,-6.62, -0.07,-0.01,0.01
723,4.42,-5.05,-6.46, -0.07,-0.01,0.00
724,4.44,-5.09,-6.67, -0.07,-0.01,0.01
725,4.50,-5.20,-6.69, -0.07,-0.00,0.00
726,4.42,-5.07,-6.61, -0.07,-0.00,0.00
727,4.44,-5.05,-6.64, -0.07,-0.00,0.00
728,4.43,-4.99,-6.53, -0.07,-0.00,0.00
729,4.47,-5.09,-6.66, -0.07,0.00,-0.00
730,4.49,-5.05,-6.56, -0.07,0.00,-0.00
731,4.45,-5.08,-6.47, -0.07,0.00,-0.01
732,4.47,-5.04,-6.59, -0.07,-0.00,0.00
733,4.41,-5.02,-6.48, -0.07,-0.00,0.01
734,4.40,-5.04,-6.59, -0.07,-0.00,0.00
735,4.43,-5.10,-6.69, -0.07,-0.01,-0.01
736,4.41,-4.98,-6.53, -0.07,-0.00,0.01
737,4.42,-5.05,-6.60, -0.07,-0.01,0.01
738,4.38,-5.09,-6.53, -0.07,-0.00,0.00
739,4.47,-5.07,-6.56, -0.07,-0.01,0.01
740,4.51,-4.98,-6.59, -0.07,-0.01,0.01
741,4.45,-5.10,-6.57, -0.07,-0.00,0.00
742,4.47,-5.07,-6.57, -0.07,-0.00,0.01
743,4.42,-5.09,-6.55, -0.07,-0.01,0.01
744,4.42,-5.03,-6.64, -0.07,-0.01,0.01
745,4.45,-5.10,-6.62, -0.05,-0.01,0.02
746,4.40,-5.04,-6.62, -0.07,-0.01,0.03
747,4.50,-5.12,-6.62, -0.06,-0.00,-0.01
748,4.49,-5.00,-6.57, -0.07,-0.00,0.00
749,4.43,-5.03,-6.60, -0.07,-0.01,0.02
750,4.37,-5.05,-6.58, -0.07,-0.00,-0.00
751,4.38,-5.05,-6.54, -0.07,-0.00,-0.01
752,4.39,-5.00,-6.56, -0.06,-0.00,0.01
753,4.47,-5.10,-6.60, -0.07,-0.01,0.02
754,4.39,-5.08,-6.64, -0.07,-0.01,-0.01
755,4.43,-5.06,-6.68, -0.07,-0.00,0.00
756,4.43,-5.03,-6.60, -0.07,-0.01,0.02
757,4.35,-4.97,-6.51, -0.06,-0.01,0.01
758,4.49,-5.10,-6.68, -0.06,-0.00,0.00
759,4.43,-5.00,-6.60, -0.07,-0.01,0.00
760,4.43,-5.04,-6.58, -0.06,-0.01,0.01
761,4.43,-5.03,-6.59, -0.07,-0.01,0.01
762,4.43,-5.05,-6.52, -0.06,-0.00,-0.01
763,4.41,-5.12,-6.65, -0.07,-0.01,0.01
764,4.43,-5.04,-6.63, -0.07,-0.01,0.01
765,4.32,-4.98,-6.53, -0.07,-0.01,0.01
766,4.46,-5.02,-6.58, -0.06,-0.01,-0.00
767,4.42,-5.03,-6.57, -0.07,-0.01,-0.00
768,4.38,-5.04,-6.58, -0.07,-0.01,0.01
769,4.37,-5.03,-6.42, -0.06,-0.01,0.02
770,4.47,-5.02,-6.54, -0.07,-0.01,0.00
771,4.39,-5.03,-6.63, -0.07,-0.01,-0.00
772,4.49,-5.02,-6.59, -0.07,-0.01,0.01
773,4.42,-5.03,-6.55, -0.07,-0.01,0.01
774,4.43,-5.05,-6.59, -0.07,-0.01,0.00
775,4.49,-5.06,-6.64, -0.07,-0.01,-0.00
776,4.42,-5.02,-6.56, -0.07,-0.00,0.01
777,4.46,-5.10,-6.61, -0.07,-0.01,0.01
778,4.45,-5.04,-6.54, -0.07,-0.01,0.00
779,4.37,-5.02,-6.52, -0.08,-0.00,0.02
780,4.40,-4.97,-6.56, -0.07,0.01,0.01
781,4.39,-5.10,-6.59, -0.06,0.03,-0.09
782,4.56,-4.99,-6.65, -0.09,0.01,0.01
783,4.41,-5.16,-6.57, -0.06,-0.01,-0.02
784,4.47,-4.99,-6.60, -0.08,0.02,0.03
785,4.48,-5.12,-6.64, -0.07,0.01,-0.05
786,4.38,-5.02,-6.51, -0.07,0.00,-0.01
787,4.47,-5.08,-6.61, -0.07,0.00,0.02
788,4.44,-5.02,-6.67, -0.07,0.00,-0.01
789,4.40,-5.01,-6.59, -0.08,0.00,-0.02
790,4.49,-5.02,-6.56, -0.07,0.00,0.01
791,4.41,-5.04,-6.61, -0.07,-0.00,0.01
792,4.49,-5.04,-6.56, -0.08,0.00,-0.00
793,4.46,-5.00,-6.59, -0.07,-0.00,-0.01
794,4.51,-5.03,-6.54, -0.07,-0.01,0.01
795,4.48,-5.04,-6.60, -0.06,-0.01,0.02
796,4.47,-5.06,-6.60, -0.07,-0.01,-0.01
797,4.47,-5.04,-6.57, -0.07,-0.01,0.00
798,4.42,-5.00,-6.54, -0.07,-0.01,0.02
799,4.46,-5.08,-6.63, -0.07,-0.01,0.01
800,4.52,-4.99,-6.53, -0.07,-0.01,-0.01
801,4.53,-5.04,-6.59, -0.07,-0.01,0.01
802,4.43,-5.05,-6.55, -0.07,-0.01,0.02
803,4.46,-5.01,-6.61, -0.07,-0.01,0.01
804,4.51,-5.07,-6.62, -0.07,-0.00,-0.00
805,4.41,-5.07,-6.49, -0.07,-0.01,0.00
806,4.41,-5.04,-6.62, -0.06,-0.01,0.01
807,4.41,-5.02,-6.60, -0.07,-0.00,0.01
808,4.41,-4.95,-6.52, -0.07,-0.01,-0.00
809,4.45,-5.03,-6.53, -0.07,-0.00,0.00
810,4.49,-5.07,-6.51, -0.07,-0.01,0.00
811,4.46,-5.08,-6.65, -0.07,-0.00,-0.00
812,4.46,-4.98,-6.54, -0.07,-0.00,-0.00
813,4.43,-5.07,-6.62, -0.07,-0.00,0.01
814,4.50,-5.11,-6.56, -0.07,-0.00,0.01
815,4.39,-5.04,-6.65, -0.07,-0.00,0.00
816,4.37,-4.99,-6.55, -0.07,-0.00,-0.00
817,4.47,-5.07,-6.59, -0.07,-0.01,0.01
818,4.47,-5.03,-6.66, -0.07,-0.00,0.01
819,4.45,-5.08,-6.68, -0.07,-0.00,-0.00
820,4.44,-5.04,-6.53, -0.07,-0.00,0.00
821,4.41,-4.95,-6.56, -0.07,-0.00,0.01
822,4.45,-5.04,-6.57, -0.07,-0.00,0.01
823,4.48,-5.06,-6.61, -0.07,0.00,-0.01
824,4.51,-4.99,-6.62, -0.06,0.00,-0.01
825,4.47,-5.08,-6.53, -0.07,-0.00,0.01
826,4.41,-5.00,-6.59, -0.06,0.00,0.00
827,4.49,-5.17,-6.75, -0.06,0.00,-0.01
828,4.41,-5.05,-6.62, -0.06,-0.00,-0.02
829,4.50,-4.98,-6.60, -0.07,-0.01,0.01
830,4.47,-5.08,-6.55, -0.07,-0.01,0.00
831,4.43,-5.04,-6.55, -0.07,-0.01,-0.01
832,4.42,-5.07,-6.51, -0.07,-0.01,0.00
833,4.50,-5.06,-6.55, -0.07,-0.00,0.01
834,4.47,-5.03,-6.58, -0.07,-0.01,0.00
835,4.43,-5.05,-6.55, -0.06,-0.00,-0.00
836,4.42,-5.08,-6.63, -0.07,-0.01,0.01
837,4.45,-5.02,-6.52, -0.07,-0.01,0.01
838,4.45,-5.00,-6.55, -0.07,-0.01,0.00
839,4.46,-5.08,-6.56, -0.07,-0.00,0.00
840,4.46,-5.02,-6.51, -0.07,-0.01,0.01
841,4.46,-5.05,-6.57, -0.07,-0.01,0.01
842,4.46,-5.00,-6.56, -0.07,-0.01,0.00
843,4.47,-5.05,-6.62, -0.07,-0.00,0.00
844,4.49,-5.03,-6.58, -0.07,-0.01,0.01
845,4.50,-4.96,-6.53, -0.07,-0.00,0.01
846,4.44,-5.03,-6.59, -0.07,-0.00,0.00
847,4.45,-5.05,-6.60, -0.07,-0.01,0.00
848,4.39,-5.06,-6.66, -0.07,-0.01,0.01
849,4.46,-5.04,-6.54, -0.07,-0.00,-0.00
850,4.46,-5.03,-6.53, -0.07,-0.01,0.01
851,4.47,-5.10,-6.63, -0.07,-0.00,-0.01
852,4.43,-5.08,-6.56, -0.07,-0.01,0.01
853,4.44,-5.01,-6.54, -0.07,-0.01,0.01
854,4.50,-4.99,-6.49, -0.07,-0.00,0.01
855,4.39,-4.93,-6.36, -0.08,-0.00,0.01
856,4.51,-5.16,-6.73, -0.05,-0.00,-0.01
857,4.59,-5.19,-6.73, -0.06,-0.00,0.02
858,4.50,-5.06,-6.62, -0.07,-0.01,0.03
859,4.37,-4.94,-6.43, -0.06,-0.01,0.00
860,4.40,-4.98,-6.37, -0.07,-0.00,0.01
861,4.44,-5.04,-6.59, -0.06,-0.00,-0.01
862,4.47,-5.01,-6.62, -0.08,-0.01,0.01
863,4.49,-4.98,-6.60, -0.06,-0.00,0.00
864,4.47,-5.07,-6.57, -0.07,-0.00,0.01
865,4.46,-5.02,-6.54, -0.07,-0.01,0.01
866,4.47,-5.02,-6.56, -0.07,-0.01,0.00
867,4.47,-5.11,-6.54, -0.07,-0.00,-0.00
868,4.50,-5.07,-6.66, -0.06,-0.00,-0.00
869,4.46,-5.06,-6.64, -0.07,-0.01,0.01
870,5.19,-4.19,-5.56, -0.23,0.17,0.07
871,2.97,-2.43,-5.99, -0.30,0.23,-1.58
872,6.25,-3.93,-7.74, 0.19,-0.16,0.58
873,4.17,-4.81,-5.94, 0.08,-0.43,1.73
874,3.58,-4.02,-5.15, -0.43,0.53,-0.96
875,5.91,-5.51,-7.48, -0.19,-0.06,-1.20
876,4.06,-3.11,-3.15, 0.06,-0.20,1.29
877,3.85,-1.94,-7.55, -0.18,1.50,-3.87
878,0.14,-4.91,-1.11, -0.82,-0.15,0.41
879,13.91,-4.04,-10.81, 0.42,-1.19,0.82
880,3.82,-6.57,-1.47, -0.62,-2.63,3.40
881,5.12,-2.26,-9.49, -1.30,-0.36,4.59
882,3.12,-4.99,-4.40, 0.08,1.77,-1.66
883,3.27,-10.22,-10.23, -1.07,-0.24,0.96
884,9.56,-9.33,-11.07, -1.29,-0.93,1.24
885,11.25,-19.88,-9.35, -1.19,0.12,-0.64
886,9.43,-10.75,-13.71, -0.96,1.75,-2.30
887,10.55,-6.26,-9.38, -0.36,1.81,-1.68
888,4.68,-4.85,-4.97, 0.41,0.77,2.04
889,3.00,-1.80,-4.69, 0.68,0.25,0.88
890,6.75,-1.87,-11.00, -0.71,1.20,-0.76
891,9.23,-4.76,-10.56, -0.80,1.44,0.14
892,7.34,-7.01,-6.44, -0.19,0.50,1.89
893,6.75,-1.80,-10.31, -0.03,0.57,3.21
894,5.19,-2.77,-9.74, -0.39,1.47,0.13
895,2.66,-4.55,-8.79, -1.34,1.89,-0.80
896,3.12,-1.69,-5.82, -1.38,0.86,-0.11
897,7.67,-4.01,-7.78, -0.52,0.55,2.08
898,6.63,-2.43,-8.39, -0.69,0.92,2.19
899,4.56,-2.36,-10.19, -1.12,1.89,0.78
900,4.45,-5.12,-10.36, -1.30,1.69,0.36
901,6.68,-4.75,-8.41, -1.14,1.28,0.84
902,6.16,-3.55,-9.48, -0.94,1.23,2.11
903,3.87,-3.89,-7.54, -0.29,1.15,1.59
904,3.98,-5.58,-14.05, -0.86,1.26,1.25
905,2.05,-1.11,-8.35, -1.07,1.13,-0.53
906,3.66,-3.05,-9.37, -1.70,-0.16,0.36
907,9.68,-6.44,-9.62, -2.14,-0.02,2.51
908,8.76,-9.60,-12.51, -1.55,1.97,-0.19
909,13.92,-5.69,-8.59, -1.15,2.95,1.43
910,0.60,22.37,-39.00, 3.30,4.55,5.01
911,3.27,-0.07,-6.97, 1.79,3.29,1.51
912,3.55,3.72,-6.88, -0.78,4.36,-0.29
913,3.05,-6.37,-0.59, 0.26,3.08,0.04
914,-0.09,-0.06,-7.32, 0.03,1.75,1.63
915,-0.20,-2.88,-4.35, -0.24,2.66,0.07
916,-2.71,-2.69,-2.94, 0.13,1.92,-0.78
917,-3.27,-2.11,-2.94, 0.64,-0.01,-0.08
918,-2.78,-2.99,-2.49, 1.38,-1.87,0.56
919,-0.91,-2.78,-3.65, 0.28,-2.16,-0.35
920,4.91,-4.18,-3.28, -0.33,-2.58,-3.28
921,4.23,-1.59,-3.02, -0.78,-1.99,2.07
922,6.72,2.77,-1.82, -0.29,-0.81,-1.34
923,3.67,-7.04,-1.35, -0.75,-0.57,-0.48
924,4.85,-2.41,-1.05, -0.32,-0.88,-0.38
925,5.95,-2.07,-2.45, -0.76,-0.57,-0.04
926,4.06,-2.54,-3.49, -1.22,-0.25,-1.19
927,1.95,-3.10,-4.31, -1.23,-0.53,0.18
928,5.76,-1.73,-2.31, -1.14,-0.76,0.87
929,5.88,-1.50,-1.45, -1.02,-0.53,-0.80
930,3.85,-3.21,-2.12, -1.33,-0.58,-0.46
931,3.48,-3.32,-1.87, -1.48,-0.74,-0.33
932,4.16,-2.60,-4.06, -1.59,-1.04,0.19
933,5.28,-2.33,-5.63, -1.90,-1.22,1.27
934,8.33,-4.50,-5.75, -0.18,0.42,-0.35
935,4.97,-4.85,-1.47, 0.17,0.37,-0.30
936,4.38,-2.03,-4.74, -0.44,-0.91,1.22
937,1.97,-1.09,0.32, -0.09,-1.10,1.07
938,6.01,-3.13,-2.63, -0.65,-0.45,1.48
939,5.83,-3.29,-1.51, -0.55,0.21,1.95
940,7.58,-13.06,-9.82, -0.73,1.95,2.27
941,4.26,-1.43,-0.38, -0.73,1.94,1.97
942,4.88,-0.67,-4.47, -1.38,2.16,0.18
943,4.28,-4.42,-3.39, -1.50,1.83,1.29
944,-3.31,-10.33,-13.37, -1.18,0.82,3.71
945,1.07,-6.40,-9.75, -1.41,1.25,0.98
946,-1.03,-4.68,-5.61, -1.13,0.92,-0.42
947,0.75,-11.56,-9.12, -0.29,-0.20,2.78
948,9.23,-6.69,-6.72, -0.07,-0.92,-1.09
949,8.89,-6.53,-6.67, 0.15,-0.20,1.49
950,5.38,-4.29,-4.28, 1.31,-0.43,3.21
951,2.64,-6.15,-8.31, 1.02,0.95,3.20
952,3.77,-3.99,-6.99, 0.63,-0.10,1.39
953,6.15,-7.35,-6.60, 0.47,-0.41,0.79
954,3.87,-6.84,-7.86, 0.18,-0.20,1.58
955,5.68,-8.43,-9.46, -0.31,0.64,-0.56
956,7.57,-10.92,-11.65, -0.10,1.46,-1.38
957,4.19,-6.39,-6.25, 0.77,1.20,-0.40
958,6.29,-9.62,-9.50, -0.53,0.61,2.22
959,3.70,-10.19,-8.18, -0.10,1.52,-0.83
960,6.18,-3.16,-5.88, -0.38,2.40,-0.94
961,3.96,-5.93,-4.81, 0.24,1.27,0.90
962,4.11,-4.11,-6.29, 0.47,0.46,2.64
963,1.19,-1.42,-6.22, 0.59,0.58,0.51
964,0.74,-1.89,-4.67, 0.63,-0.62,1.67
965,2.38,-1.21,-4.86, 0.44,-1.75,1.06
966,5.07,-0.30,-6.97, -2.19,-2.37,0.42
967,4.87,-0.20,-5.19, -0.49,1.15,-0.19
968,5.60,-7.21,0.32, -0.92,0.38,-3.64
969,12.65,-3.22,-6.11, -2.00,-0.20,5.19
970,0.17,-2.99,-4.41, -1.28,2.35,-0.67
971,4.61,-5.09,-5.28, 0.05,0.13,0.18
972,4.68,-4.62,-5.04, -0.06,-0.28,-0.03
973,5.38,-6.13,-6.68, 0.25,-0.27,0.35
974,4.96,-5.82,-4.86, 0.24,-0.01,0.19
975,3.45,-4.36,-4.71, 0.00,-0.42,1.46
976,1.70,-6.24,-4.86, -0.23,-0.25,0.47
977,4.23,-5.73,-7.14, -0.35,0.33,-2.08
978,6.11,-4.84,-5.50, -0.07,-0.09,-0.08
979,4.41,-6.22,-5.67, 0.15,-0.05,1.22
980,4.11,-5.85,-6.76, -0.34,0.11,-0.33
981,4.20,-5.03,-5.51, -0.24,0.02,-0.90
982,5.36,-5.56,-6.88, -0.03,0.34,0.31
983,3.52,-5.80,-7.32, 0.09,-0.03,-0.81
984,3.08,-5.21,-3.25, -0.33,-0.08,0.13
985,2.83,-5.58,-5.40, -0.37,0.52,-0.20
986,4.61,-5.17,-5.27, -0.16,0.61,-2.14
987,3.05,-4.80,-5.05, 0.72,-0.56,0.90
988,6.28,-7.29,-6.02, 0.66,-0.88,1.61
989,8.90,-10.81,-6.18, 0.23,0.19,-1.31
990,6.04,-7.45,-3.61, -0.77,0.09,0.72
991,1.35,-5.11,1.77, -0.42,0.37,-0.95
992,5.91,-3.21,-5.95, -0.36,-0.03,-0.81
993,3.38,-5.72,-8.19, 1.10,-0.06,1.82
994,1.93,-2.83,-2.43, -1.45,-0.30,2.15
995,0.75,-1.65,0.95, -1.31,-0.45,-0.77
996,5.88,-8.02,-7.15, -0.06,0.02,-0.69
997,6.61,-3.37,-6.51, -1.14,-0.38,0.68
998,1.89,-4.65,-3.60, 1.32,0.52,-2.04
999,1.95,-4.52,-7.52, 0.59,0.64,-0.30
1000,7.75,-10.19,-4.80, -1.14,0.56,-1.92
1001,5.55,-5.04,-6.21, 0.35,0.11,-1.18
1002,6.18,-4.08,-7.49, 0.66,-0.76,0.96
1003,3.61,-3.09,-9.22, -0.80,0.67,-1.79
1004,2.61,-5.77,-2.69, -1.38,0.05,-0.94
1005,8.55,-2.91,-5.79, -0.22,-0.23,1.19
1006,8.73,-4.63,-8.97, 0.58,0.07,0.46
1007,4.13,-2.91,-9.54, 0.57,0.34,-0.62
1008,4.25,-0.44,-9.27, -0.96,0.44,1.43
1009,4.47,-5.00,-2.37, -0.36,0.62,-0.46
1010,5.81,-7.05,-3.34, -1.07,0.62,-1.44
1011,3.43,-4.83,-5.51, -0.66,0.21,-1.56
1012,3.85,-3.20,-6.70, 0.30,0.14,1.35
1013,6.03,-6.19,-4.11, -0.18,0.60,-1.45
1014,5.33,-6.40,-7.25, -0.12,0.75,-2.69
1015,5.15,-5.62,-7.35, 0.45,0.18,-2.01
1016,5.89,-5.50,-6.48, 1.41,-0.34,-1.16
1017,6.28,-4.96,-4.75, 2.14,-0.81,-0.51
1018,5.81,-3.79,-5.82, 1.90,-0.58,-1.24
1019,10.39,2.10,-4.30, 0.69,-0.48,-2.50
1020,5.93,-7.35,-4.02, -0.43,-0.37,-1.36
1021,7.36,-3.82,-6.00, 0.04,-0.42,0.46
1022,7.31,-2.78,-5.69, -0.09,0.06,-0.29
1023,6.09,-3.02,-6.68, -0.25,0.32,-0.38
1024,7.31,-5.23,-5.21, 0.15,0.13,0.48
1025,6.00,-3.89,-5.87, 0.20,-0.18,0.45
1026,6.45,-3.51,-5.70, 0.19,-0.01,0.22
1027,7.73,-4.76,-7.11, 0.15,0.15,0.06
1028,8.58,-2.87,-9.48, -0.32,0.77,-0.28
1029,7.18,-5.22,-5.30, 0.46,0.33,-0.28
1030,-2.48,19.89,-4.15, -0.43,0.91,-0.01
1031,8.12,-3.08,-6.96, 0.10,0.12,0.43
1032,7.24,-3.36,-6.29, -0.30,0.18,-0.85
1033,6.11,-3.78,-5.03, -0.48,0.50,-0.49
1034,7.07,-3.16,-6.75, -0.09,-0.20,0.49
1035,7.66,-3.35,-6.80, 0.05,-0.05,0.09
1036,4.55,-3.33,-3.23, -0.12,-0.02,-0.24
1037,5.86,-3.22,-5.29, -0.23,-0.26,0.02
1038,9.15,-3.44,-8.37, -0.39,0.61,0.01
1039,5.08,-4.31,-3.58, 0.19,0.21,0.59
1040,6.92,-3.70,-4.65, -0.28,-0.03,1.13
1041,7.87,-3.41,-6.74, -0.68,0.51,-1.57
1042,6.42,-3.96,-6.38, -0.31,0.31,-0.13
1043,7.81,-3.23,-6.43, 0.18,-0.37,0.16
1044,7.00,-2.48,-5.92, -0.27,0.00,-0.68
1045,7.04,-3.68,-6.92, 0.10,-0.09,0.12
1046,6.47,-3.10,-5.05, 0.20,-0.09,0.36
1047,5.94,-3.65,-6.66, -0.18,-0.15,-0.02
1048,8.66,-3.40,-8.68, -0.53,-1.03,2.73
1049,10.20,-2.00,-8.13, -0.55,-0.54,-0.50
1050,8.39,-0.44,-6.44, -0.98,-0.93,1.85
1051,10.58,-32.96,-37.35, -1.18,0.48,6.50
1052,15.02,-30.48,-49.03, -0.86,1.05,3.77
1053,6.93,-0.69,-7.24, 0.83,1.46,-1.56
1054,5.59,0.13,-13.52, -0.36,0.84,1.27
1055,4.67,-5.10,-1.38, -1.28,-0.67,2.47
1056,4.92,-6.45,-0.78, -1.36,0.52,0.67
1057,4.24,-7.80,-4.07, 0.18,1.01,-0.38
1058,1.61,-3.58,-7.00, 0.08,0.12,0.88
1059,2.39,-4.42,-6.53, -0.37,0.25,-0.59
1060,2.90,-5.25,-4.76, -0.12,-0.39,-0.87
1061,3.47,-3.84,-5.56, 0.13,-0.32,0.02
1062,4.73,-4.45,-5.17, 0.62,-0.62,-1.08
1063,10.00,-3.38,-8.07, 0.83,0.02,-0.01
1064,5.69,-2.22,-7.62, 1.32,-0.82,-0.10
1065,7.27,-1.62,-6.50, 0.62,-0.68,0.01
1066,7.70,-2.44,-4.87, 0.78,-0.61,0.04
1067,8.58,-2.50,-3.56, 0.31,-0.34,0.58
1068,6.94,-1.14,-7.96, -0.12,0.53,-0.12
1069,6.67,-2.69,-5.50, -0.07,0.12,0.93
1070,6.07,-3.12,-5.73, -0.51,0.22,1.36
1071,4.59,-4.46,-5.33, -0.38,0.49,0.99
1072,3.48,-4.00,-5.67, -0.83,0.30,0.78
1073,8.01,-5.49,-10.16, -0.26,0.72,0.35
1074,14.62,-44.97,-18.92, 1.52,1.10,-0.69
1075,3.83,-5.68,-4.67, 0.49,-0.53,-0.66
1076,5.40,-3.95,-6.10, 0.14,-0.27,0.82
1077,6.59,-3.66,-5.33, 0.15,-0.16,0.26
1078,4.63,-5.03,-4.48, -0.54,0.13,-1.40
1079,5.77,-5.48,-5.19, -0.01,-0.43,0.53
1080,4.65,-4.29,-5.45, 0.01,0.07,-0.35
1081,4.74,-4.34,-5.08, -0.37,0.25,-0.32
1082,7.28,-3.71,-6.64, -0.07,0.06,0.62
1083,6.71,-4.46,-6.76, 0.03,0.01,0.57
1084,5.43,-4.83,-6.26, 0.19,0.16,-0.11
1085,5.39,-4.13,-5.58, -0.28,0.22,-0.00
1086,5.26,-3.81,-5.43, -0.37,0.25,-0.35
1087,7.33,-5.30,-8.82, -0.51,0.33,-0.63
1088,6.16,-4.39,-6.07, -0.36,0.17,0.29
1089,5.74,-3.59,-6.21, -0.08,-0.06,0.36
1090,6.25,-4.06,-5.65, -0.20,-0.03,-0.02
1091,5.40,-3.76,-5.92, -0.33,0.04,0.20
1092,4.48,-4.06,-5.80, -0.39,0.20,-0.21
1093,6.79,-5.49,-6.68, -0.19,-0.00,0.42
1094,6.05,-4.50,-6.35, 0.12,-0.10,0.30
1095,5.76,-4.28,-6.43, 0.17,-0.13,0.22
1096,5.43,-4.18,-6.04, 0.03,0.02,0.06
1097,5.35,-4.16,-5.47, -0.19,-0.03,0.14
1098,5.95,-4.34,-6.25, -0.06,-0.02,-0.14
1099,6.38,-4.32,-6.40, 0.03,-0.12,0.37
1100,6.33,-4.66,-7.02, 0.07,0.00,-0.09
1101,5.40,-4.09,-6.64, -0.21,0.10,-0.65
1102,6.00,-5.02,-5.28, -0.13,-0.04,-0.15
1103,5.72,-3.71,-5.82, 0.04,-0.07,0.80
1104,6.40,-3.66,-6.43, 0.02,0.01,0.61
1105,6.70,-3.71,-6.96, -0.02,0.21,0.22
1106,4.79,-4.84,-5.74, -0.37,0.43,-0.78
1107,3.12,-5.45,-5.34, -0.39,0.16,-0.95
1108,3.66,-5.99,-3.45, -0.11,-0.22,-1.50
1109,7.73,-5.40,-7.70, 0.01,-0.16,-0.54
1110,4.66,-3.85,-5.02, 0.17,-0.38,0.14
1111,7.56,-3.81,-8.00, 0.19,0.06,-0.96
1112,5.82,-4.25,-6.10, 0.05,0.38,-0.93
